timestamp,accel_x,accel_y,accel_z,gyro_x,gyro_y,gyro_z
0.0,-0.16729474067687988,-0.18805107474327087,0.9654965400695801,-0.36271676421165466,0.044068899005651474,0.12116308510303497
0.10123085975646973,-0.16728273034095764,-0.19203665852546692,0.9654805660247803,-0.36271440982818604,0.043854039162397385,0.12110549211502075
0.20229005813598633,-0.17517352104187012,-0.19991335272789001,0.9613933563232422,-0.3626953065395355,0.043806955218315125,0.12129039317369461
0.30333614349365234,-0.16333985328674316,-0.18808907270431519,0.9655828475952148,-0.36270326375961304,0.04378246143460274,0.12113640457391739
0.4042503833770752,-0.16731172800064087,-0.18404695391654968,0.9616299867630005,-0.3627311885356903,0.04389478638768196,0.12082565575838089
0.5055022239685059,-0.17127662897109985,-0.18397194147109985,0.9537785053253174,-0.362747460603714,0.043957263231277466,0.1206577718257904
0.6063792705535889,-0.17520952224731445,-0.1879565715789795,0.9614413976669312,-0.3627394735813141,0.04396059736609459,0.12080992758274078
0.7071926593780518,-0.35748493671417236,-0.08638355880975723,0.9190455675125122,-0.7261346578598022,0.0709105134010315,0.12026224285364151
0.8081996440887451,-0.3484051525592804,-0.5637325644493103,0.7076377868652344,-0.7793919444084167,-0.16306553781032562,0.28763145208358765
0.9088492393493652,-0.12650373578071594,-0.7093236446380615,0.7080119848251343,-0.769302487373352,-0.2581009268760681,0.25789645314216614
1.010025978088379,0.4431978762149811,-0.8455804586410522,0.5646072030067444,-0.7323551177978516,-0.38995102047920227,0.12812042236328125
1.1110174655914307,0.07940705865621567,-0.7634824514389038,0.7899435758590698,-0.7391524314880371,-0.3706941306591034,0.10346473008394241
1.211979866027832,0.11445116251707077,-0.5844354033470154,0.7836750745773315,-0.718097984790802,-0.2900750935077667,0.10137433558702469
1.3129684925079346,0.13814055919647217,-0.584515392780304,0.7531321048736572,-0.5890427231788635,-0.2613343894481659,0.24113859236240387
1.4141736030578613,-0.314520925283432,-1.5379371643066406,0.16472676396369934,-0.47850826382637024,-0.25650373101234436,0.49291613698005676
1.5154087543487549,-0.38386622071266174,-0.7767074704170227,0.30608925223350525,-0.4677225649356842,-0.19835148751735687,0.5044944882392883
1.6159074306488037,-0.10347533971071243,-0.6360163688659668,0.33220553398132324,-0.4916999042034149,-0.13710260391235352,0.46533462405204773
1.716404676437378,-0.7376232743263245,0.09240884333848953,0.9580559730529785,-0.5838509798049927,-0.057009484618902206,0.37209460139274597
1.8170862197875977,0.2851848304271698,-1.0181504487991333,0.29255175590515137,-0.6731569170951843,-0.22754400968551636,0.30609092116355896
1.9180586338043213,0.6316940188407898,-0.026621758937835693,1.4611769914627075,-0.6946713924407959,-0.3247129023075104,0.23403894901275635
1.918924331665039,0.47748497128486633,-0.3642013967037201,0.6799152493476868,-0.7085034847259521,-0.39304399490356445,0.13557672500610352
2.0197932720184326,0.7400703430175781,-1.0070220232009888,0.3957226276397705,-0.7095130681991577,-0.4197041690349579,0.03880671411752701
2.1208033561706543,0.6336020231246948,-0.9559220671653748,0.7585650086402893,-0.6941981315612793,-0.43698835372924805,0.02976580522954464
2.2217700481414795,0.3115541636943817,-0.5406068563461304,0.39214086532592773,-0.7750678658485413,-0.3768758475780487,0.0820782408118248
2.3230135440826416,1.519893765449524,-0.5599483251571655,2.045271873474121,-0.8285767436027527,-0.40557965636253357,-0.019788965582847595
2.424485683441162,1.3306914567947388,-0.04927975684404373,0.6377304792404175,-0.8579898476600647,-0.3736661374568939,-0.21997840702533722
2.5255346298217773,0.3147461712360382,-2.2510743141174316,-1.1522647142410278,-0.7898778915405273,-0.5105485320091248,-0.1311110407114029
2.626634120941162,-0.2739551365375519,0.7099478840827942,0.07772135734558105,-0.8027678728103638,0.1907011866569519,0.5459283590316772
2.727755069732666,0.2966724634170532,0.5190292596817017,0.5320289731025696,-0.9825087189674377,0.18604132533073425,0.008077233098447323
2.828721523284912,-0.6014257073402405,-0.7350574731826782,0.36362433433532715,-0.8749316334724426,-0.40969568490982056,0.25413978099823
2.930088520050049,-0.6580684185028076,1.2238541841506958,0.8945255279541016,-0.7797332406044006,-0.22482264041900635,0.41659703850746155
3.0309507846832275,-0.2281622290611267,-0.25270986557006836,-0.4027611315250397,-0.6201897263526917,-0.6696101427078247,-0.021960480138659477
3.131929874420166,-0.2783489525318146,-0.7336409091949463,-0.5805360674858093,-0.42929840087890625,-0.8356496095657349,-0.21220915019512177
3.233083963394165,-0.2278602421283722,-0.6124764084815979,-1.0176680088043213,-0.19356869161128998,-0.907514750957489,-0.3051307201385498
3.334390163421631,-0.495541512966156,-0.9337620735168457,-0.8074067234992981,-0.26931706070899963,-0.8287983536720276,-0.3119461238384247
3.4360265731811523,-0.38886815309524536,-0.4929703176021576,0.15571756660938263,-0.7830988168716431,-0.40737974643707275,-0.18634259700775146
3.537198305130005,-0.7137998938560486,0.04453863948583603,0.9195557832717896,-0.961120069026947,-0.05167676880955696,0.2436712235212326
3.63796329498291,-0.9887300133705139,-1.1185922622680664,-0.3452690541744232,-0.7581235766410828,-0.3807145357131958,0.5256550312042236
3.738736391067505,-0.7092430591583252,-0.7104959487915039,-0.39573273062705994,-0.5666898488998413,-0.5688164234161377,0.5945571064949036
3.839740514755249,-0.5179308652877808,-1.0567281246185303,-0.047414932399988174,-0.6740357875823975,-0.5980658531188965,0.4258098006248474
3.9410951137542725,-0.312980055809021,-0.49644890427589417,0.7358646988868713,-0.9357479810714722,-0.29989323019981384,0.17008104920387268
4.042084693908691,-0.04205884039402008,-1.0542153120040894,0.9879955053329468,-0.8843010067939758,-0.22175168991088867,-0.08875403553247452
4.143307209014893,0.9967178702354431,-0.7399325966835022,0.7091456055641174,-0.5617523789405823,-0.34334927797317505,-0.12533456087112427
4.2441980838775635,-0.5578718185424805,-0.8736024498939514,0.07670126855373383,-0.23874115943908691,-0.5036159753799438,-0.3311588764190674
4.345036029815674,0.07863505184650421,-0.7369788289070129,0.24647556245326996,-0.24981528520584106,-0.24546509981155396,-0.4691393971443176
4.446404695510864,0.6433757543563843,-0.3255898654460907,0.6099304556846619,-0.428318589925766,0.12407837063074112,-0.34634929895401
4.547024250030518,-0.030189238488674164,0.37907975912094116,1.281412959098816,-0.6215277314186096,0.11935946345329285,0.012616819702088833
4.6475443840026855,-0.4054407775402069,0.15632453560829163,1.1014682054519653,-0.6944452524185181,-0.06501971185207367,0.08524472266435623
4.748140096664429,-0.8602772355079651,-0.07963355630636215,0.5042950510978699,-0.7734572291374207,-0.30600377917289734,0.23754152655601501
4.848961114883423,-0.8925524353981018,0.1516132354736328,0.5511239171028137,-0.8307273387908936,-0.19540320336818695,0.39918360114097595
4.950260877609253,-0.8018527030944824,0.26600712537765503,0.6195769309997559,-0.8232731223106384,-0.07896898686885834,0.42024511098861694
5.0513880252838135,-0.35037314891815186,0.20814186334609985,0.9902889728546143,-0.8816981315612793,-0.01925678364932537,0.19186052680015564
5.152517080307007,0.1687217652797699,-0.21043208241462708,0.8096828460693359,-0.7927541732788086,-0.057138457894325256,-0.11245431751012802
5.253435850143433,-0.5003363490104675,0.05468393862247467,0.8737901449203491,-0.3833508789539337,-0.15096580982208252,0.002210958395153284
5.354397296905518,-0.6761308312416077,-0.7123088240623474,0.7581058740615845,-0.11803729087114334,-0.26248055696487427,-0.12219259142875671
5.455608367919922,-0.34165534377098083,-0.0865725502371788,0.9271559715270996,0.07794338464736938,-0.17323456704616547,-0.08035000413656235
5.556540250778198,-0.13561555743217468,-0.18850308656692505,0.9972477555274963,0.375741183757782,-0.0005506663583219051,0.02847772091627121
5.657483100891113,-0.25385352969169617,-0.39381876587867737,0.8268750309944153,0.8970145583152771,0.11977741867303848,-0.004351451061666012
5.758499383926392,-0.04420384019613266,-0.3565687835216522,0.9558520913124084,0.9765983819961548,0.16550032794475555,0.0063651446253061295
5.859886407852173,0.5173369646072388,-0.36176127195358276,0.925398051738739,0.9718589186668396,0.19613291323184967,0.06976300477981567
5.961657762527466,0.17365464568138123,-0.6042674779891968,0.6451159715652466,0.9216046333312988,0.36938074231147766,0.11249708384275436
6.062932014465332,-0.1657637357711792,-0.8755432963371277,0.5395251512527466,0.8758725523948669,0.4590989053249359,-0.004786461126059294
6.164147615432739,-0.20273584127426147,-0.46021798253059387,0.43946486711502075,0.8815444707870483,0.3587815761566162,-0.020636312663555145
6.26524543762207,0.3244178593158722,-0.6508296132087708,0.9161188006401062,0.8860006928443909,0.312018483877182,0.17050428688526154
6.366272449493408,-0.3325755298137665,-0.7215695381164551,0.34237855672836304,0.733784019947052,0.6323989033699036,-0.03381824493408203
6.467860221862793,-0.9978076815605164,-0.5269558429718018,0.13838475942611694,0.6512062549591064,0.5845624804496765,-0.36342653632164
6.56906795501709,-1.173692226409912,-0.03754216432571411,-0.17795103788375854,0.5778977274894714,0.5149527788162231,-0.46850085258483887
6.669870376586914,-0.7649345993995667,-0.5353561043739319,-0.23705030977725983,0.5024723410606384,0.6947302222251892,-0.2226734310388565
6.770754337310791,-0.5827022790908813,-0.6801231503486633,-0.33072152733802795,0.43557441234588623,0.7733651995658875,-0.010556403547525406
6.87162709236145,-0.6571683287620544,-0.8237892389297485,-0.14268983900547028,0.4972819983959198,0.7160983681678772,0.08184699714183807
6.9727466106414795,-0.5505510568618774,-0.46949681639671326,0.571596086025238,0.5726748108863831,0.488142728805542,-0.016243264079093933
7.073598861694336,-0.16966962814331055,-0.6076850891113281,1.2122166156768799,0.6681572198867798,0.26822128891944885,0.21020804345607758
7.174469947814941,0.30696922540664673,-0.34117788076400757,0.3695589303970337,0.6777902245521545,0.23760771751403809,0.3230430483818054
7.275278091430664,-0.04059493914246559,-0.5996809601783752,0.10853956639766693,0.6766675114631653,0.22096005082130432,0.3089900314807892
7.375835657119751,0.35563603043556213,-0.49981024861335754,0.9445953965187073,0.6694327592849731,0.21488381922245026,0.30942079424858093
7.4764018058776855,0.09748455882072449,-0.5563923716545105,-0.05133314058184624,0.6197413206100464,0.24996916949748993,0.3483608663082123
7.577385902404785,0.3705446422100067,-0.32711997628211975,0.6389031410217285,0.5761045217514038,0.1682584136724472,0.3390006721019745
7.678435802459717,0.6673980951309204,-0.5003147125244141,0.4272620379924774,0.5782812833786011,0.11094015836715698,0.3814867436885834
7.779470682144165,-0.5379813313484192,-1.102811336517334,-0.37417685985565186,0.5649694204330444,0.10781918466091156,0.3844122886657715
7.880425214767456,1.249611496925354,-0.46566668152809143,1.1972310543060303,0.5444645285606384,0.11633529514074326,0.39292240142822266
7.981645584106445,0.23557007312774658,-0.03229956328868866,0.9322305917739868,0.5646957159042358,0.0501369908452034,0.2774423360824585
8.082757949829102,0.03823205828666687,-0.35114267468452454,0.4878857433795929,0.44753310084342957,-0.16622070968151093,0.22823747992515564
8.183704614639282,0.23735395073890686,0.3619327247142792,0.16124746203422546,0.3593849241733551,-0.41063520312309265,0.2534788250923157
8.284738063812256,1.5868839025497437,0.022433040663599968,0.13112476468086243,0.21752285957336426,-0.4838128685951233,0.3394951820373535
8.385629892349243,0.5592358708381653,-0.19859278202056885,0.053402360528707504,0.06809123605489731,-0.447190523147583,0.40797701478004456
8.486828088760376,2.2510831356048584,-1.1919013261795044,0.21445827186107635,0.010487686842679977,-0.44158443808555603,0.38669517636299133
8.587997913360596,0.14653927087783813,0.24796435236930847,0.0034945644438266754,0.010372175835072994,-0.49774083495140076,0.14898553490638733
8.689066410064697,0.4478296637535095,-0.08864106982946396,-0.21648143231868744,0.261054128408432,-0.3727257251739502,0.05006267502903938
8.790173292160034,-0.34737223386764526,0.022456040605902672,-0.19846832752227783,0.27425625920295715,0.3048366606235504,-0.1272994428873062
8.891302108764648,-1.0993611812591553,0.2839774489402771,-0.05077214166522026,0.260322242975235,0.50693279504776,-0.4521808326244354
8.992755651473999,-0.6442877054214478,0.12099744379520416,-0.21232204139232635,0.2622942626476288,0.6047055721282959,-0.3653314709663391
9.093489408493042,-1.1337682008743286,0.019808338955044746,0.2541205585002899,0.3592607378959656,0.5673747062683105,-0.24579103291034698
9.1944899559021,-0.7657736539840698,0.08651664108037949,0.5769250988960266,0.4833083748817444,0.3318236470222473,-0.2457646280527115
9.295495986938477,-0.022499438375234604,0.2812877595424652,0.8773952722549438,0.5997154116630554,0.08862469345331192,-0.08353210985660553
9.396392107009888,0.20162194967269897,-0.6213453412055969,0.8281382918357849,0.6184718012809753,0.11662466078996658,0.2436133325099945
9.497644901275635,0.5609688758850098,-0.4178296625614166,0.8950625658035278,0.6613783836364746,0.062202926725149155,0.3212665617465973
57.13182234764099,0.06221646070480347,-0.23407816886901855,0.9664433598518372,0.9915744066238403,0.11827315390110016,0.02725033462047577
57.23228406906128,0.06218946352601051,-0.23003709316253662,0.9548115730285645,0.9915704727172852,0.11832007020711899,0.027199286967515945
57.33269238471985,0.062199462205171585,-0.23007407784461975,0.9625768065452576,0.991574764251709,0.11833544820547104,0.02699362486600876
57.43311667442322,0.06222346052527428,-0.23804527521133423,0.9625447988510132,0.9915750026702881,0.11835620552301407,0.026920504868030548
57.53378987312317,0.06616136431694031,-0.23407918214797974,0.9587644934654236,0.9915587306022644,0.11841337382793427,0.027223141863942146
57.63425588607788,0.0582345612347126,-0.2299990952014923,0.9547252655029297,0.9915474653244019,0.11853032559156418,0.027140112593770027
57.73478722572327,0.06218745931982994,-0.22608846426010132,0.9625927805900574,0.9915311932563782,0.11866390705108643,0.027147062122821808
57.835225343704224,0.4181654453277588,-0.2532925605773926,0.9430855512619019,0.9706363081932068,0.11603881418704987,0.05613971874117851
57.93566823005676,0.6084606647491455,-0.5524085760116577,0.6043591499328613,0.8439695239067078,0.3290729522705078,0.07117081433534622
58.03630232810974,0.414743572473526,-0.5468754172325134,0.666150689125061,0.7953839302062988,0.40522170066833496,0.04163435474038124
58.136778593063354,0.44237786531448364,-0.5469564199447632,0.6279287934303284,0.7890801429748535,0.41663792729377747,0.03277738019824028
58.23719048500061,0.36789074540138245,-0.8166632056236267,0.5009578466415405,0.7700625061988831,0.4737280607223511,-0.013518769294023514
58.337594509124756,0.537329375743866,-0.6938186287879944,0.3110347390174866,0.6992539167404175,0.5393579602241516,-0.026681089773774147
58.43798494338989,0.7507840991020203,-0.636345624923706,0.3702913224697113,0.6143383979797363,0.5602558255195618,0.015410223044455051
58.538517475128174,0.7933169603347778,-0.28634536266326904,0.4386528432369232,0.5375716686248779,0.4406435191631317,0.19239935278892517
58.63890504837036,0.8795347213745117,0.011331640183925629,0.5271686315536499,0.3561500310897827,0.4530080556869507,0.18208560347557068
58.73928666114807,0.9072930216789246,-0.03650256246328354,0.47322434186935425,0.2570550739765167,0.4940066635608673,0.09179776161909103
58.83965277671814,0.8699440360069275,-0.9507386088371277,0.03383016213774681,0.09940752387046814,0.5590270161628723,-0.2541837990283966
58.94010257720947,0.718859851360321,-0.5955751538276672,0.24163515865802765,-0.0016363664763048291,0.4808260500431061,-0.3544296324253082
59.040812253952026,0.6195043921470642,-0.3208952844142914,0.5084810853004456,-0.11951562017202377,0.34120646119117737,-0.21278010308742523
59.14138603210449,0.44104287028312683,0.02945704013109207,0.9447393417358398,-0.27327942848205566,0.2165585309267044,-0.07565408945083618
59.24190354347229,0.2004719376564026,-0.18355834484100342,0.9619067311286926,-0.448569118976593,-0.036108341068029404,-0.0593595989048481
59.342405796051025,-0.17895042896270752,-0.41335877776145935,0.5954787135124207,-0.5586771368980408,-0.3460064232349396,-0.2770308256149292
59.44286870956421,-0.42726314067840576,-0.7412145137786865,0.4722357392311096,-0.7276840209960938,-0.29632455110549927,-0.1995798647403717
59.54343390464783,-0.6334519386291504,-0.5914382934570312,0.39845335483551025,-0.886822521686554,-0.2681374251842499,0.0887322947382927
59.64387226104736,-0.20668074488639832,-0.3025689721107483,0.8205133676528931,-0.9183518886566162,-0.3598012626171112,0.16248470544815063
59.74425554275513,-0.00015893764793872833,-0.7452260255813599,0.4621431529521942,-0.8567031621932983,-0.4697685241699219,0.14530658721923828
59.84465479850769,0.011593760922551155,-0.7409844398498535,0.3847660422325134,-0.7976400256156921,-0.5423880815505981,0.09403597563505173
59.94511294364929,-0.14175832271575928,-0.9083222150802612,0.679688572883606,-0.8438183665275574,-0.4585101008415222,0.12353579699993134
60.045748472213745,-0.369216650724411,-0.12223245948553085,0.938055694103241,-0.9565362334251404,-0.16893576085567474,0.20142827928066254
60.146259784698486,-0.2706121504306793,-0.14583808183670044,0.6761003732681274,-0.9819858074188232,-0.11773906648159027,0.1415218561887741
60.24677062034607,0.20181894302368164,-0.5866034626960754,1.065120816230774,-0.9246141910552979,-0.30521640181541443,-0.08179600536823273
60.34724736213684,-0.5512879490852356,-2.093316078186035,-0.7473530173301697,-0.7208519577980042,-0.6218973398208618,-0.15555916726589203
60.44773602485657,-0.4196493327617645,-0.8663137555122375,-0.05613723769783974,-0.6816359162330627,-0.694911777973175,0.04713200032711029
60.5483717918396,-0.8976612687110901,-0.5010900497436523,1.2045025825500488,-0.8220785856246948,-0.5058565735816956,0.22436487674713135
60.64887309074402,-0.31696292757987976,-0.5790724158287048,0.5180167555809021,-0.8978835940361023,-0.37799781560897827,0.21651993691921234
60.74931526184082,0.09502765536308289,-0.9323697686195374,0.23438896238803864,-0.7702780961990356,-0.5758814215660095,0.14275342226028442
60.84972095489502,0.272918164730072,-0.9140777587890625,0.22282205522060394,-0.7121990919113159,-0.6318686604499817,0.06476125866174698
60.95011830329895,0.9005672335624695,-0.4033977687358856,0.5337013602256775,-0.7420248985290527,-0.4560878276824951,-0.20336396992206573
61.050618171691895,0.699026346206665,-0.42963650822639465,0.5874270796775818,-0.81495600938797,-0.40284350514411926,-0.26179417967796326
61.151033878326416,0.7430921792984009,-0.5740170478820801,0.6887480020523071,-0.8220336437225342,-0.4379335939884186,-0.27323806285858154
61.25152635574341,0.5963729619979858,-0.6736466288566589,0.14157485961914062,-0.7555122375488281,-0.5703452825546265,-0.3060755729675293
61.35199046134949,0.3990049660205841,-0.7164947390556335,0.3273312747478485,-0.7907429933547974,-0.5510639548301697,-0.262561172246933
61.45246148109436,-0.04718372970819473,-0.8724942207336426,0.49942153692245483,-0.8740462064743042,-0.44813862442970276,-0.09244896471500397
61.55306077003479,-0.48485374450683594,0.19766205549240112,0.9484807848930359,-0.9090152978897095,-0.16064652800559998,0.2246858775615692
61.65349459648132,-0.24712875485420227,0.044021740555763245,0.933637797832489,-0.8013859987258911,-0.19985634088516235,0.27822351455688477
61.75391721725464,-0.953579843044281,-0.6561710238456726,0.4028388559818268,-0.48609593510627747,-0.5543842315673828,0.16880452632904053
61.854344606399536,-1.005164384841919,-0.8205747008323669,-0.12310604751110077,-0.3685148358345032,-0.7136528491973877,-0.1654232293367386
61.954771757125854,-0.30560725927352905,-0.6876567602157593,-0.13833172619342804,-0.38514551520347595,-0.6807569265365601,-0.20876546204090118
62.055317878723145,-0.4113515317440033,-0.7456481456756592,0.5346865653991699,-0.5578373074531555,-0.4351409077644348,-0.2318405658006668
62.155754804611206,-0.12673774361610413,-0.42469146847724915,1.1983715295791626,-0.694083034992218,-0.22857722640037537,-0.1487392783164978
62.256271839141846,-0.9966908097267151,-0.5547359585762024,0.949752151966095,-0.691753089427948,-0.32438623905181885,-0.06502088159322739
62.35673379898071,-0.8148073554039001,-0.6509173512458801,0.6970863938331604,-0.547267735004425,-0.5191631317138672,-0.09903193265199661
62.457218170166016,0.12022195756435394,-0.11547676473855972,0.2149774581193924,-0.6825544834136963,-0.3212873041629791,-0.09399175643920898
62.55801582336426,-2.1220531463623047,-0.32191717624664307,2.8518543243408203,-0.708775520324707,-0.32319560647010803,-0.027345780283212662
62.65856337547302,-0.5777243375778198,-0.5420630574226379,0.7997773885726929,-0.7538709044456482,-0.33775556087493896,0.1172516867518425
62.759082078933716,-1.056698203086853,-0.5240467190742493,0.48265764117240906,-0.7261854410171509,-0.3084970712661743,0.26367589831352234
62.85958194732666,-2.0747992992401123,0.5009268522262573,1.5361720323562622,-0.7456222772598267,-0.2788061797618866,0.2770808935165405
62.9600625038147,-0.3308286666870117,-0.047375164926052094,0.20539525151252747,-0.7405545115470886,-0.3115849792957306,0.27433592081069946
63.06067395210266,-0.43005913496017456,0.029782241210341454,0.10259416699409485,-0.7000377178192139,-0.2648634612560272,0.2940698564052582
63.161192655563354,-0.5855532288551331,0.66255122423172,0.6103931069374084,-0.6647352576255798,-0.06783861666917801,0.22257964313030243
63.261659383773804,0.11684605479240417,-0.0663454607129097,0.7858414053916931,-0.5875862836837769,0.03960004821419716,-0.00433487119153142
63.362061500549316,0.1408204585313797,-0.4615999758243561,0.04318256303668022,-0.4179644286632538,0.08546473830938339,-0.21694974601268768
63.46246361732483,0.992078959941864,-0.13830146193504333,1.596724033355713,-0.3033297657966614,0.12338856607675552,-0.2585199773311615
63.56334400177002,0.6578154563903809,-1.1234714984893799,0.7428804039955139,-0.05875081941485405,0.18929657340049744,-0.30901041626930237
63.663838624954224,0.5802443623542786,-0.3097609877586365,0.7600350975990295,0.16122718155384064,0.329953670501709,-0.13667257130146027
63.764344453811646,1.0310840606689453,-0.3455522358417511,0.6804454922676086,0.34838661551475525,0.44381946325302124,0.008187249302864075
63.86482501029968,0.8578193187713623,-0.6737785935401917,0.4850728511810303,0.4993513524532318,0.490727037191391,0.02765427716076374
63.96525454521179,0.430693119764328,-0.5278024673461914,0.8141146898269653,0.6544599533081055,0.37822702527046204,-0.06687678396701813
64.06582951545715,-0.23267203569412231,-0.7578638195991516,1.0704542398452759,0.787117600440979,0.26269736886024475,-0.20440317690372467
64.16624641418457,0.20340496301651,-1.136357307434082,1.0085563659667969,0.776803195476532,0.24570733308792114,-0.13737468421459198
64.26668119430542,0.15296614170074463,-0.2972232699394226,0.6536816358566284,0.7385802268981934,0.29470759630203247,-0.16626931726932526
64.36711382865906,0.08546485751867294,-0.24040886759757996,0.5747866034507751,0.731416642665863,0.2555300295352936,-0.18108507990837097
64.46756052970886,-0.39465194940567017,-1.0249402523040771,0.5649725794792175,0.7155764698982239,0.25131791830062866,-0.27513232827186584
64.5681791305542,-0.1833573281764984,-0.36829516291618347,0.3470819592475891,0.7255867123603821,0.178411066532135,-0.24543623626232147
64.66866159439087,-0.34699615836143494,-0.596534252166748,1.7364147901535034,0.6724827885627747,0.16987304389476776,-0.20142044126987457
64.76917958259583,-2.1262412071228027,1.1281752586364746,2.9974517822265625,0.5682076811790466,-0.18870574235916138,-0.06251547485589981
64.86967253684998,-0.3197719156742096,0.20773723721504211,0.17561736702919006,0.4332232177257538,-0.41622301936149597,-0.11674973368644714
64.9701406955719,-1.185033917427063,-0.0945400670170784,0.09723065793514252,0.29812484979629517,-0.4441370964050293,-0.342827707529068
65.07075452804565,-1.1123816967010498,-0.4041132628917694,0.5168728232383728,0.20833110809326172,-0.4458327889442444,-0.3153817653656006
65.17119574546814,-1.0415555238723755,-0.1827506721019745,0.7600435018539429,0.0995410829782486,-0.3662453889846802,-0.24297262728214264
65.27160620689392,-1.0448623895645142,-0.4767591059207916,0.5724083781242371,0.023109477013349533,-0.29395613074302673,-0.2478853464126587
65.37199974060059,-0.19454002380371094,-0.45346978306770325,0.6803906559944153,-0.21682898700237274,-0.17162975668907166,-0.26370754837989807
65.47243022918701,-0.04766273498535156,-0.6263675093650818,0.7061914205551147,-0.23933176696300507,-0.18723805248737335,-0.24373526871204376
65.57305979728699,0.13289065659046173,-0.28409597277641296,0.44752037525177,-0.2300800383090973,-0.2517926096916199,-0.1993662416934967
65.67368125915527,-0.029796238988637924,-0.18990716338157654,0.2424548715353012,-0.2367742955684662,-0.2368777096271515,-0.17729519307613373
65.77419066429138,0.02256046049296856,-0.20965507626533508,0.9384981989860535,-0.3707183003425598,-0.22143791615962982,-0.3184134364128113
65.87471413612366,-0.1911691427230835,-0.44346457719802856,0.2456577569246292,-0.3753119111061096,-0.32269081473350525,-0.4212607443332672
65.97519659996033,0.4699961543083191,-0.8307446241378784,-0.09478272497653961,-0.4082861840724945,-0.2768920361995697,-0.3711033761501312
66.07580232620239,0.019734559580683708,-0.6749147176742554,0.7229968309402466,-0.42074111104011536,-0.24271510541439056,-0.30019545555114746
66.17628788948059,-0.5728844404220581,-1.1168495416641235,0.1336190551519394,-0.44806429743766785,-0.23915602266788483,-0.34821802377700806
66.27676558494568,-0.1276637315750122,-0.6459136605262756,-0.052737634629011154,-0.577507734298706,-0.24872340261936188,-0.16091008484363556
66.37724924087524,-0.9586117267608643,-0.23438096046447754,0.555869996547699,-0.6103464961051941,-0.3801690340042114,0.16523709893226624
66.47774171829224,-1.3345601558685303,-0.31267407536506653,0.17072325944900513,-0.6162909269332886,-0.5668588280677795,0.3252122700214386
66.5784113407135,-1.340250015258789,0.04849144071340561,-0.33654364943504333,-0.6135321259498596,-0.5798471570014954,0.41175198554992676
66.67897510528564,-0.10998424142599106,0.05135783925652504,-0.0456235371530056,-0.5093526840209961,-0.4863685965538025,0.6902503371238708
66.779456615448,0.011430660262703896,0.37380892038345337,-0.20860402286052704,-0.20166051387786865,-0.449611097574234,0.8415206074714661
66.87990188598633,-0.6600484848022461,1.0341202020645142,-1.1096961498260498,0.0762752965092659,-0.37369227409362793,0.7826054692268372
66.98040628433228,1.0809926986694336,-1.892141342163086,-1.056398630142212,0.17581000924110413,0.32965779304504395,-0.18803085386753082
67.08105659484863,0.6020606160163879,1.146281361579895,-0.3983168601989746,-0.5025748014450073,0.8142120242118835,-0.22675521671772003
67.18150615692139,0.01809646002948284,1.1744581460952759,0.7110941410064697,-0.9090653657913208,0.409039705991745,-0.03876068443059921
67.2819893360138,-0.8618842363357544,0.24554955959320068,0.012500861659646034,-0.8667173981666565,-0.13500869274139404,0.37384143471717834
67.38251113891602,-0.7643617391586304,0.8604806065559387,0.41316354274749756,-0.6056247353553772,0.011719198897480965,0.5088358521461487
67.48297500610352,-0.03645113855600357,0.9236568212509155,0.7593517899513245,-0.47837817668914795,0.15993933379650116,0.3770090937614441
67.58364987373352,0.37799644470214844,-0.07326456159353256,0.8808209896087646,-0.413023442029953,0.16520431637763977,-0.03301464393734932
67.6840751171112,0.31928595900535583,-0.3469054698944092,0.7114706635475159,-0.3459918200969696,0.099864162504673,-0.2234381139278412
67.78446698188782,-0.16924363374710083,-1.015204906463623,0.5815874934196472,-0.16885343194007874,-0.14876461029052734,-0.44186121225357056
67.88487362861633,-0.14725124835968018,-0.3744727671146393,0.7361026406288147,-0.23427583277225494,-0.13996312022209167,-0.3156983554363251
67.98535323143005,0.10644035786390305,-0.5918681621551514,0.6864054799079895,-0.4433169364929199,-0.14009904861450195,-0.31475213170051575
68.08692288398743,0.3056383728981018,-1.1666771173477173,0.47487345337867737,-0.5769093036651611,-0.23346056044101715,-0.48481231927871704
68.18732595443726,-0.3088131546974182,-0.5997424721717834,0.6578829884529114,-0.6641181111335754,-0.2492702156305313,-0.23559390008449554
68.28774642944336,-0.41995733976364136,-0.47499534487724304,0.6287844181060791,-0.6547743678092957,-0.3310418725013733,-0.10726042091846466
68.38819074630737,-1.018970012664795,-2.6830103397369385,0.1524202525615692,-0.4675583243370056,-0.44920894503593445,-0.21416427195072174
68.48866248130798,-0.4475586414337158,-0.7469792366027832,0.048568859696388245,-0.2910405993461609,-0.4894673824310303,-0.3924099802970886
68.5893189907074,-0.5896340608596802,-0.8767845630645752,-0.028835337609052658,-0.14266040921211243,-0.5262329578399658,-0.4732663631439209
68.68972563743591,-0.6570773124694824,-0.7571255564689636,0.08665555715560913,-0.12097559869289398,-0.5425695776939392,-0.4261177182197571
68.7901885509491,-0.7245766520500183,-0.6057296991348267,0.23333525657653809,-0.14764530956745148,-0.5459907054901123,-0.32940539717674255
68.8906500339508,-0.6649602055549622,-0.6822666525840759,0.2847995460033417,-0.19529958069324493,-0.5365695953369141,-0.28190693259239197
68.9911277294159,-0.530064582824707,-0.8112643361091614,0.3221651315689087,-0.3394157290458679,-0.5024036765098572,-0.3180641233921051
69.0918037891388,-0.37157154083251953,-0.8572364449501038,0.4535669684410095,-0.48656532168388367,-0.42874154448509216,-0.31249743700027466
69.19224786758423,-0.05910643935203552,-0.8958128690719604,0.3981190621852875,-0.5312446355819702,-0.41823989152908325,-0.3717716932296753
69.29280018806458,0.41118165850639343,-0.95817631483078,0.0004757605493068695,-0.5967907309532166,-0.41043326258659363,-0.5204123258590698
69.39333915710449,0.5058612823486328,-0.9227369427680969,-0.09825663268566132,-0.6239349246025085,-0.3895171582698822,-0.6132949590682983
69.49383878707886,0.7777813076972961,-0.5315985083580017,0.08011646568775177,-0.7014216184616089,-0.2615310251712799,-0.6404080390930176
69.59450554847717,0.9079280495643616,-0.4723840653896332,-0.06045183911919594,-0.7024438381195068,-0.25132325291633606,-0.6651061773300171
69.6950032711029,0.9312084913253784,-0.28571438789367676,0.030117761343717575,-0.7225850820541382,-0.20285281538963318,-0.6607785820960999
69.79546308517456,1.021637201309204,-0.07967016845941544,0.1028214618563652,-0.7629902958869934,-0.17172285914421082,-0.6219739317893982
69.8959686756134,0.6911835670471191,-0.6505155563354492,0.11656385660171509,-0.7857500910758972,-0.2818003296852112,-0.5344274044036865
69.99640417098999,0.8219522833824158,-0.7748976349830627,0.029615961015224457,-0.7629091143608093,-0.4798726737499237,-0.36802351474761963
70.09695172309875,0.4318351149559021,-1.146855115890503,0.24475906789302826,-0.7804540991783142,-0.5291633009910583,-0.14677226543426514
70.19740009307861,0.43032512068748474,-0.5303820371627808,0.5190210938453674,-0.8165509104728699,-0.4809732437133789,-0.05520769581198692
70.2978503704071,-0.04319284111261368,-1.0618431568145752,0.07941906154155731,-0.8297504782676697,-0.4639964699745178,0.15830227732658386
70.39825391769409,0.2500707507133484,-0.9407603740692139,0.8511894941329956,-0.8354885578155518,-0.34858572483062744,0.22354663908481598
70.49865698814392,-0.71776282787323,-0.2549249827861786,0.20385505259037018,-0.7509698271751404,-0.22765643894672394,0.40554192662239075
70.59924578666687,0.3224428594112396,-0.3479320704936981,0.08255976438522339,-0.6829982995986938,-0.12180563062429428,0.485042929649353
70.69975161552429,-1.5673352479934692,-0.6159912347793579,-0.11514763534069061,-0.511174738407135,0.12348772585391998,0.5721995234489441
70.80024313926697,-0.6719910502433777,-0.048137858510017395,-0.6290523409843445,-0.2881838381290436,0.3526080250740051,0.5889315605163574
70.9007363319397,-0.7253296971321106,-0.4492368996143341,0.012651059776544571,-0.21014663577079773,0.40305060148239136,0.4921351373195648
71.00129318237305,-0.9398432374000549,0.017446838319301605,0.36317944526672363,-0.2908370792865753,0.4785569906234741,0.21291273832321167
71.10188508033752,-0.9120999574661255,0.14702212810516357,0.7176281809806824,-0.4036310911178589,0.3988020420074463,0.10201456397771835
71.20234274864197,0.04675285890698433,-0.404714971780777,0.8411669731140137,-0.5125473141670227,-0.01306826714426279,0.14745725691318512
71.30274152755737,0.41869843006134033,-0.6454433798789978,0.4328809380531311,-0.550595223903656,-0.3908686935901642,0.18582841753959656
71.40313220024109,0.43907293677330017,-0.8646194338798523,0.3858412504196167,-0.6108815670013428,-0.4933033883571625,0.18647897243499756
71.50356125831604,0.4376959502696991,-0.2841093838214874,0.679372251033783,-0.6819550395011902,-0.44099482893943787,0.11728571355342865
71.6042857170105,0.32369786500930786,-0.49051764607429504,0.7303939461708069,-0.8157926797866821,-0.34333908557891846,-0.03681161254644394
71.70477819442749,0.2571485638618469,-0.8352867364883423,0.4479876756668091,-0.8656366467475891,-0.40944987535476685,-0.10659129917621613
71.8053081035614,0.2925266623497009,-0.8624179363250732,0.21569636464118958,-0.7920814752578735,-0.581416130065918,-0.12590952217578888
71.90582942962646,0.3570000231266022,-1.3403915166854858,0.024909760802984238,-0.7570071816444397,-0.6281324028968811,-0.1467019021511078
72.00635004043579,0.35313713550567627,-0.9899271130561829,0.927010715007782,-0.8828485012054443,-0.4360796809196472,-0.152389258146286
72.10698509216309,0.4013238549232483,-0.16659396886825562,0.3451559543609619,-0.96092689037323,-0.11253882944583893,-0.22625532746315002
72.20746994018555,1.0495874881744385,0.08461004495620728,0.7020179629325867,-0.8365215063095093,-0.013204431161284447,-0.4204340875148773
72.30793190002441,0.8441046476364136,-0.15446355938911438,0.26170316338539124,-0.6812854409217834,0.1757262647151947,-0.5180342793464661
72.40836334228516,1.0606741905212402,0.10313944518566132,0.13548126816749573,-0.5615254044532776,0.3791046142578125,-0.454618364572525
72.50881481170654,0.9196837544441223,-0.28685837984085083,0.29387563467025757,-0.49955105781555176,0.39408332109451294,-0.39649856090545654
72.60936975479126,0.6510165929794312,-0.13943415880203247,0.8399284482002258,-0.4688085913658142,0.1922416239976883,-0.2801506221294403
72.7098479270935,-0.3171099126338959,-0.43664538860321045,0.7399010062217712,-0.36037468910217285,-0.12460154294967651,-0.21988852322101593
72.81026697158813,-0.13494554162025452,-0.6639260649681091,0.3974073529243469,-0.36171698570251465,-0.28264787793159485,-0.34545284509658813
72.91087746620178,-0.11380905658006668,-1.0869226455688477,0.46602967381477356,-0.36017343401908875,-0.29820793867111206,-0.3824111521244049
73.01133918762207,-0.06731624156236649,-0.7369788885116577,0.538360059261322,-0.38345542550086975,-0.2356720119714737,-0.3527989387512207
73.08944416046143,0.022920459508895874,-0.44745907187461853,0.6579909920692444,-0.29245874285697937,-0.1414622813463211,-0.2520298957824707
73.18998217582703,0.06698235869407654,-0.6036484837532043,0.7282031178474426,-0.1626741588115692,0.041988227516412735,-0.29836493730545044
73.2904121875763,0.9347444772720337,-1.2565091848373413,0.5076721906661987,-0.1535213440656662,0.1808020919561386,-0.41882431507110596
73.39089274406433,0.4740160405635834,-0.6142571568489075,0.4691605567932129,-0.14319871366024017,0.1741924285888672,-0.440380722284317
73.49136519432068,0.26346534490585327,-0.3210538625717163,0.41528084874153137,-0.1161900982260704,0.10495898127555847,-0.4151763319969177
73.59198904037476,0.9938939809799194,-0.8544329404830933,1.3259446620941162,-0.18240217864513397,0.08096583932638168,-0.4028320014476776
73.69248032569885,-0.29351454973220825,-0.36937716603279114,0.7950471639633179,-0.3299797773361206,-0.07753809541463852,-0.11743112653493881
73.79298138618469,-1.0546352863311768,0.05833084136247635,0.37636715173721313,-0.37134474515914917,-0.40177518129348755,0.1611930876970291
73.8934633731842,-0.5804393291473389,0.01975044049322605,-0.0016808398067951202,-0.4187837541103363,-0.6420174837112427,0.10909219831228256
73.99397730827332,-1.0982491970062256,-0.15761014819145203,-0.22338251769542694,-0.38637539744377136,-0.7815279960632324,-0.0364607535302639
74.09452247619629,-3.0956716537475586,-0.8065222501754761,1.1008514165878296,-0.47927454113960266,-0.774304211139679,-0.07551758736371994
74.19495487213135,-0.4664841294288635,-0.9548729062080383,0.22202236950397491,-0.7496684193611145,-0.5848228931427002,-0.08768995106220245
74.29536819458008,-0.09199263900518417,-0.25636178255081177,0.9319208860397339,-0.9588918089866638,-0.23524260520935059,-0.08947451412677765
74.39575719833374,0.2681262493133545,-0.39464566111564636,0.7955739498138428,-0.976036548614502,-0.16368378698825836,-0.12322715669870377
74.49615287780762,0.4502546489238739,-0.4523215591907501,0.8264979720115662,-0.9568262696266174,-0.20611268281936646,-0.14660495519638062
74.59679007530212,-0.1269417405128479,-0.5342902541160583,0.7786027789115906,-0.9631708860397339,-0.2630956172943115,0.028833063319325447
74.69724416732788,-0.18981313705444336,-0.7361893653869629,0.6172193884849548,-0.9346646666526794,-0.3447110950946808,0.06569518893957138
74.79773736000061,-0.1004694327712059,-0.25024667382240295,0.5007956624031067,-0.9183337688446045,-0.3475068211555481,-0.052292000502347946
74.89821290969849,0.3424353301525116,-0.30557548999786377,0.3549492657184601,-0.8849196434020996,-0.3624102771282196,-0.24095696210861206
74.99866795539856,-5.7050042152404785,-0.8703129887580872,4.646571636199951,-0.9083443284034729,-0.28168025612831116,-0.27557089924812317
75.09930300712585,0.7413092255592346,-0.11812316626310349,0.3683161437511444,-0.8508623838424683,-0.22003617882728577,-0.4426082372665405
75.1998143196106,0.964177668094635,-0.7244713306427002,0.036813363432884216,-0.7205767035484314,-0.18321335315704346,-0.5940511226654053
75.30030679702759,0.8171313405036926,-0.7007138133049011,-0.4749203622341156,-0.5375533103942871,-0.11374946683645248,-0.7801317572593689
75.40081357955933,0.8359808325767517,-0.3821853995323181,-0.4460306167602539,-0.43390655517578125,0.03096054494380951,-0.8378321528434753
75.50129318237305,0.8126094341278076,-0.4975768029689789,-0.4392472505569458,-0.38337546586990356,0.09918031096458435,-0.8214906454086304
75.60185050964355,0.5965909957885742,-0.709924042224884,0.2268480658531189,-0.3414160907268524,0.0537327416241169,-0.5398707985877991
75.70228219032288,0.058880556374788284,-0.5398028492927551,0.7282865047454834,-0.3199668228626251,-0.020158842206001282,-0.330267071723938
75.8027913570404,-0.3862452208995819,0.3238072395324707,1.0443326234817505,-0.18397733569145203,-0.15336164832115173,0.031097039580345154
75.90331554412842,-0.46433025598526,-0.1087716594338417,0.8117892742156982,0.1527109146118164,-0.16811856627464294,-0.09473902732133865
76.00384855270386,0.11949105560779572,-0.982607901096344,0.6928616166114807,0.2814296782016754,0.09372639656066895,-0.45183849334716797
76.10453915596008,0.24175596237182617,-1.018009901046753,0.34984147548675537,0.24942390620708466,0.3091200292110443,-0.44379371404647827
76.20509171485901,0.5045942664146423,-0.18498587608337402,0.6540611982345581,0.17422518134117126,0.34086716175079346,-0.14910566806793213
76.30555987358093,-0.010949738323688507,0.3020452558994293,0.6797215938568115,0.04171457514166832,0.055837150663137436,0.09689297527074814
76.40597987174988,-0.5239817500114441,-0.18975326418876648,0.35977715253829956,-0.11444177478551865,-0.31285005807876587,-0.08316545188426971
76.50648641586304,-0.7924789190292358,-0.358254075050354,0.2910991609096527,-0.2841944098472595,-0.4734064042568207,-0.0761614739894867
76.60703754425049,-0.7732754349708557,-0.029211759567260742,0.622879683971405,-0.45762723684310913,-0.4204970598220825,0.0991995707154274
76.70741605758667,-0.7333454489707947,-0.14135506749153137,0.6582381129264832,-0.5160385966300964,-0.3615601658821106,0.12001499533653259
76.80784511566162,-0.42079633474349976,-0.10930066555738449,0.8360341787338257,-0.49370861053466797,-0.26439836621284485,0.10947415977716446
76.90822315216064,0.20159295201301575,-0.7315916419029236,0.5442604422569275,-0.28592777252197266,-0.06828705966472626,-0.3755071759223938
77.00861835479736,-0.6288220286369324,-0.9683879017829895,0.03593786060810089,-0.03253552317619324,-0.3525060713291168,-0.552810788154602
77.10928153991699,-0.8077225089073181,-0.62823486328125,0.10330116748809814,0.046593714505434036,-0.4350612759590149,-0.4527633488178253
77.2097053527832,-1.206303358078003,-0.5960640907287598,0.8401721119880676,0.1955883949995041,-0.3898148536682129,-0.22498059272766113
77.31011271476746,-0.282403826713562,-0.06322895735502243,0.9285464882850647,0.32933247089385986,-0.14634114503860474,-0.09510833770036697
77.41057300567627,0.33944544196128845,-0.44704994559288025,0.7775063514709473,0.44512298703193665,0.20227394998073578,-0.2549653649330139
77.5110137462616,0.049864761531353,-0.36616307497024536,0.2706550657749176,0.5768612623214722,0.33468466997146606,-0.3780488669872284
77.61160469055176,-0.17998334765434265,-1.1177834272384644,1.2215574979782104,0.7062662243843079,0.28401756286621094,-0.28572335839271545
77.71204137802124,0.5837942361831665,-0.24918249249458313,0.5856443643569946,0.7586348652839661,0.3297748267650604,0.0005561034195125103
77.81246566772461,0.6321110129356384,-0.6824038624763489,0.2355019599199295,0.6435595750808716,0.5261399149894714,0.03884565457701683
77.9128897190094,0.27059614658355713,-0.03448116034269333,0.48260965943336487,0.6454703211784363,0.3797971308231354,0.0037763449363410473
78.01347827911377,0.1638738512992859,-0.01397116482257843,0.5735419988632202,0.632340133190155,0.17124980688095093,0.0030933807138353586
78.11416506767273,-0.5152799487113953,-0.3740549087524414,0.5455785989761353,0.5055002570152283,-0.03440920636057854,-0.3283796012401581
78.21471905708313,-0.7706384062767029,-1.0676219463348389,0.23432625830173492,0.3196490406990051,-0.07226837426424026,-0.5846989154815674
78.31525230407715,-0.21443355083465576,-0.6814290285110474,0.04616735875606537,0.19878831505775452,-0.09299195557832718,-0.6186386346817017
78.41579508781433,-0.3505841791629791,-0.035431861877441406,0.2477203607559204,0.18342681229114532,-0.1444367617368698,-0.5538364052772522
78.51633787155151,-0.8643969893455505,-1.2365285158157349,0.7402036786079407,0.1698765754699707,-0.16627591848373413,-0.48152023553848267
78.61703872680664,0.020367460325360298,0.12951985001564026,0.01966596208512783,0.14113810658454895,-0.20116081833839417,-0.33484169840812683
78.7175612449646,-0.3057842552661896,-0.19041067361831665,0.9003384709358215,0.13037650287151337,-0.223214253783226,-0.21932528913021088
78.81808137893677,-0.0712481364607811,-0.6345547437667847,0.7988240122795105,0.1280178278684616,-0.18804897367954254,-0.19159166514873505
78.91858124732971,0.08149586617946625,1.0630488395690918,0.5450751781463623,0.09239155054092407,-0.11548905819654465,-0.148271381855011
79.01913046836853,-0.04442084580659866,-0.4109426736831665,0.6566678881645203,0.07439971715211868,-0.03707045689225197,-0.18708716332912445
79.119713306427,0.35502904653549194,-0.4739172160625458,0.5292531847953796,0.060922615230083466,0.051043808460235596,-0.18430081009864807
79.22015428543091,0.11356516182422638,0.002140335738658905,1.477145791053772,0.06655924767255783,0.014728164300322533,-0.1488119661808014
79.32058644294739,-0.04098493978381157,-0.499707967042923,0.03905276209115982,0.08227197825908661,-0.0011319646146148443,-0.16900306940078735
79.42104196548462,0.31444403529167175,-1.0096484422683716,-1.5548754930496216,0.06485670059919357,-0.022707341238856316,-0.22507305443286896
79.52157497406006,-0.4828007221221924,-0.9292349219322205,-0.10824784636497498,0.006383440922945738,-0.27261626720428467,-0.655919075012207
79.622225522995,-0.5816751718521118,-0.8061002492904663,0.177403062582016,-0.051179829984903336,-0.3542117178440094,-0.5437875390052795
79.72277355194092,-0.5041872262954712,0.007042739540338516,0.8424510955810547,-0.1198866218328476,-0.22478704154491425,-0.30757662653923035
79.8233368396759,0.02333546057343483,-0.527818500995636,0.7935619354248047,0.013348845764994621,-0.005254179239273071,-0.4419262707233429
79.92387461662292,0.4182794392108917,-0.6754226684570312,0.032845161855220795,0.07172007858753204,0.18154627084732056,-0.6937380433082581
80.02434706687927,0.22524234652519226,-0.9679955840110779,-0.07739773392677307,0.06496090441942215,0.20906847715377808,-0.7155071496963501
80.12499046325684,0.03177126124501228,-0.9751964211463928,0.14741496741771698,0.07284386456012726,0.08871954679489136,-0.6778609752655029
80.2254273891449,-0.22941315174102783,-0.9011510610580444,0.18471576273441315,0.07369622588157654,-0.09909350425004959,-0.6246651411056519
80.32590293884277,-0.5816332101821899,-0.8693147897720337,0.06066906452178955,0.08362161368131638,-0.20654956996440887,-0.5816411375999451
80.42642736434937,-0.6807607412338257,-0.7097733020782471,0.2338685542345047,0.06857471913099289,-0.32125982642173767,-0.5249130129814148
80.5270004272461,-0.18182235956192017,-0.866624653339386,0.3722601532936096,0.03196503221988678,-0.19450803101062775,-0.5194395184516907
80.62764430046082,-0.08685573935508728,-0.8361883759498596,0.4870547652244568,0.0580642893910408,-0.06571948528289795,-0.4962211549282074
80.72817134857178,-0.2372729480266571,-0.8421420454978943,0.3633827567100525,0.0931292399764061,-0.08546880632638931,-0.5079481601715088
80.82868218421936,-0.3360944390296936,-0.9714403748512268,0.09279786050319672,0.05356504023075104,-0.12900589406490326,-0.6029528379440308
80.92911124229431,-0.04324684292078018,-0.9749369025230408,0.2428402602672577,0.042754802852869034,-0.06408703327178955,-0.6146867871284485
81.02951860427856,-0.13426053524017334,-0.9029325842857361,0.36926916241645813,0.053973909467458725,-0.0278012715280056,-0.5729286074638367
81.13010358810425,-0.14215734601020813,-0.9186694622039795,0.34185436367988586,0.0631079152226448,-0.05243489146232605,-0.5388625264167786
81.23048853874207,-0.05143563449382782,-0.7491801977157593,0.5580702424049377,0.0741448923945427,-0.053255345672369,-0.45697975158691406
81.33090806007385,-0.18554025888442993,-0.8516988158226013,0.5935460925102234,0.0741553083062172,-0.063240185379982,-0.37312591075897217
81.4313497543335,-0.3049342632293701,-0.4891457259654999,0.8603125214576721,0.07945778965950012,-0.07046221941709518,-0.29962629079818726
81.53188824653625,-0.17493852972984314,-0.29931288957595825,0.910519540309906,0.0802864283323288,-0.07463639229536057,-0.2383635938167572
81.63247179985046,-0.21055364608764648,-0.2870695888996124,0.9214386940002441,0.08303751796483994,-0.08053401857614517,-0.17231222987174988
81.7330265045166,-0.15909093618392944,-0.29562726616859436,0.9419415593147278,0.08160112798213959,-0.0825958177447319,-0.16008640825748444
81.83366394042969,-0.18690025806427002,-0.25548678636550903,0.937614917755127,0.07451838999986649,-0.08343537151813507,-0.12634755671024323
81.93419456481934,-0.18295735120773315,-0.2515391707420349,0.9377171993255615,0.07425161451101303,-0.08359905332326889,-0.12833642959594727
82.03477430343628,-0.182937353849411,-0.25161316990852356,0.953247606754303,0.07412821799516678,-0.0836281031370163,-0.12953461706638336
82.13543272018433,-0.1750665307044983,-0.24366247653961182,0.9418044090270996,0.07402100414037704,-0.08335092663764954,-0.13036617636680603
82.23596024513245,-0.18693125247955322,-0.2435484528541565,0.9415454864501953,0.07401638478040695,-0.0835956409573555,-0.1306680291891098
82.3364326953888,-0.17898043990135193,-0.2555997967720032,0.9455526471138,0.07394872605800629,-0.08351078629493713,-0.13110776245594025
82.43685150146484,-0.18298834562301636,-0.23960083723068237,0.9416477680206299,0.07392952591180801,-0.08353422582149506,-0.13124299049377441
82.53730273246765,-0.17900443077087402,-0.2476285696029663,0.9455846548080444,0.07392741739749908,-0.08351422101259232,-0.13126999139785767
82.63790559768677,-0.17900943756103516,-0.24761006236076355,0.9417020678520203,0.07393959164619446,-0.08366197347640991,-0.1313462108373642
82.73837614059448,-0.17507153749465942,-0.24364399909973145,0.9379218220710754,0.07398217916488647,-0.08374781161546707,-0.13108673691749573
82.83888244628906,-0.18296635150909424,-0.24362346529960632,0.9493969678878784,0.0739707350730896,-0.08356212079524994,-0.13102127611637115
82.93939924240112,-0.1829933524131775,-0.239582359790802,0.9377651810646057,0.07395359873771667,-0.08344565331935883,-0.13113562762737274
83.03991460800171,-0.18298333883285522,-0.23961934447288513,0.945530354976654,0.07396531105041504,-0.08379126340150833,-0.1313343346118927
83.1406261920929,-0.17899742722511292,-0.251595675945282,0.9416860938072205,0.07392251491546631,-0.08353661000728607,-0.13139687478542328
83.24109673500061,-0.17903342843055725,-0.23963886499404907,0.9417340755462646,0.07394067943096161,-0.08358608931303024,-0.13129383325576782
83.34154653549194,-0.18297135829925537,-0.24360495805740356,0.9455143809318542,0.07389914989471436,-0.0833980143070221,-0.13137531280517578
83.44194722175598,-0.17900443077087402,-0.2476285696029663,0.9455846548080444,0.07390142232179642,-0.08354377746582031,-0.13150374591350555
83.54241919517517,-0.18294933438301086,-0.24762755632400513,0.9532635807991028,0.07391060888767242,-0.08357074856758118,-0.13136015832424164
83.64307689666748,-0.17899444699287415,-0.24766558408737183,0.9533498883247375,0.07388798892498016,-0.08354645222425461,-0.1316090077161789
83.74352979660034,-0.182969331741333,-0.24755355715751648,0.9377331733703613,0.07391989231109619,-0.0836729109287262,-0.1314362734556198
83.84411907196045,-0.17898443341255188,-0.24770256876945496,0.9611150622367859,0.07391003519296646,-0.0836990475654602,-0.13159503042697906
83.94463586807251,-0.18294933438301086,-0.24762755632400513,0.9532635807991028,0.07389586418867111,-0.08354900032281876,-0.1315675526857376
84.0451922416687,-0.18297135829925537,-0.24360495805740356,0.9455143809318542,0.07392807304859161,-0.08369077742099762,-0.13140955567359924
84.14586138725281,-0.1829783320426941,-0.2396378517150879,0.9494129419326782,0.07392449676990509,-0.08354564011096954,-0.13118524849414825
84.24638962745667,-0.18297633528709412,-0.2435864508152008,0.9416317939758301,0.07390746474266052,-0.08340485394001007,-0.13129742443561554
84.34692430496216,-0.18297633528709412,-0.2435864508152008,0.9416317939758301,0.07386529445648193,-0.0832551121711731,-0.13154077529907227
84.44737887382507,-0.17504453659057617,-0.24768507480621338,0.9495535492897034,0.0738629549741745,-0.08307016640901566,-0.13155284523963928
84.54791235923767,-0.18692424893379211,-0.24751555919647217,0.9376468658447266,0.07389668375253677,-0.08321359008550644,-0.13145247101783752
84.6485583782196,-0.18693125247955322,-0.2435484528541565,0.9415454864501953,0.0739218071103096,-0.0832350105047226,-0.13142940402030945
84.74911880493164,-0.18297135829925537,-0.24360495805740356,0.9455143809318542,0.07392153143882751,-0.0833519920706749,-0.13147257268428802
84.84965705871582,-0.18690723180770874,-0.25151965022087097,0.9415134787559509,0.07390948385000229,-0.08344767987728119,-0.13167837262153625
84.95012021064758,-0.18295934796333313,-0.2475905418395996,0.9454983472824097,0.0739017203450203,-0.08330122381448746,-0.1316407173871994
85.05055117607117,-0.18294233083724976,-0.2515946626663208,0.949364960193634,0.07388897985219955,-0.08320824056863785,-0.13173364102840424
85.15117955207825,-0.1789994239807129,-0.24764707684516907,0.9494672417640686,0.07391296327114105,-0.08312029391527176,-0.1315774917602539
85.25170731544495,-0.18296432495117188,-0.24757203459739685,0.9416157603263855,0.07389548420906067,-0.08321550488471985,-0.13169336318969727
85.35223197937012,-0.18299034237861633,-0.23565226793289185,0.9494289755821228,0.0739220455288887,-0.08313395082950592,-0.13144616782665253
85.4527952671051,-0.182954341173172,-0.24760904908180237,0.9493809342384338,0.07391037791967392,-0.08316048979759216,-0.13150706887245178
85.55335927009583,-0.18296432495117188,-0.24757203459739685,0.9416157603263855,0.07391463220119476,-0.0832248255610466,-0.13139887154102325
85.65402126312256,-0.17902344465255737,-0.2396758794784546,0.949499249458313,0.07390409708023071,-0.08320113271474838,-0.1315072625875473
85.75455856323242,-0.18295234441757202,-0.2515576481819153,0.9415997862815857,0.07393328845500946,-0.08344072848558426,-0.13150586187839508
85.85504746437073,-0.182954341173172,-0.24760904908180237,0.9493809342384338,0.07391923666000366,-0.0833367109298706,-0.131424218416214
85.95547866821289,-0.17900443077087402,-0.2476285696029663,0.9455846548080444,0.07390084862709045,-0.08325090259313583,-0.13154083490371704
86.05590081214905,-0.17902645468711853,-0.24360600113868713,0.9378355145454407,0.07390423119068146,-0.08325642347335815,-0.1315113753080368
86.15658020973206,-0.1869332492351532,-0.23959985375404358,0.9493266344070435,0.0739373117685318,-0.08343081176280975,-0.13138015568256378
86.25708889961243,-0.18295934796333313,-0.2475905418395996,0.9454983472824097,0.07391887903213501,-0.08328777551651001,-0.13140688836574554
86.35753440856934,-0.1750805377960205,-0.23572829365730286,0.9496015310287476,0.07396569848060608,-0.08345846086740494,-0.13127978146076202
86.45795631408691,-0.18292033672332764,-0.25561726093292236,0.9571141600608826,0.07398037612438202,-0.083585225045681,-0.13125549256801605
86.55835628509521,-0.1789684295654297,-0.2595853805541992,0.9455366730690002,0.07398179918527603,-0.08346644788980484,-0.1310993880033493
