timestamp,accel_x,accel_y,accel_z,gyro_x,gyro_y,gyro_z
0.0,-0.16745272278785706,-0.13228964805603027,0.9734857678413391,-0.9927619099617004,-0.06986995786428452,0.08019976317882538
0.10096240043640137,-0.16746973991394043,-0.12828555703163147,0.9696191549301147,-0.9927634000778198,-0.06986027956008911,0.08018623292446136
0.20172667503356934,-0.1714126169681549,-0.1322331428527832,0.9695168733596802,-0.9927634596824646,-0.06986436247825623,0.08018181473016739
0.30266833305358887,-0.1635148525238037,-0.12832355499267578,0.9697054624557495,-0.9927427768707275,-0.06986179947853088,0.0804448276758194
0.40355801582336426,-0.16747674345970154,-0.12431845813989639,0.9735177755355835,-0.9927471876144409,-0.0698590874671936,0.08039315789937973
0.5050091743469238,-0.1635148525238037,-0.12832355499267578,0.9697054624557495,-0.9927307963371277,-0.07000788301229477,0.08047115057706833
0.6061334609985352,-0.16350284218788147,-0.1323091685771942,0.9696894288063049,-0.9927487969398499,-0.06992307305335999,0.08031707257032394
0.707221508026123,-0.5443532466888428,0.3092368543148041,1.071877360343933,-0.9524431824684143,0.007452348712831736,0.09003768861293793
0.8083722591400146,-0.3252277374267578,-0.32150498032569885,0.8489052057266235,-0.6632956862449646,-0.14693374931812286,-0.022840576246380806
0.9094626903533936,-0.170271635055542,-0.6212224364280701,0.7074146866798401,-0.5458895564079285,-0.24884122610092163,-0.20680512487888336
1.010843276977539,0.023987460881471634,-0.8494681715965271,0.5437795519828796,-0.530388355255127,-0.2611549496650696,-0.37612637877464294
1.1120574474334717,0.07529115676879883,-0.8101431727409363,0.5528267025947571,-0.5290609002113342,-0.23582850396633148,-0.40134763717651367
1.213155746459961,0.019502559676766396,-0.5715851187705994,0.7855345010757446,-0.5364143252372742,-0.14371895790100098,-0.25062596797943115
1.3144781589508057,0.13259166479110718,-0.018929265439510345,0.8407349586486816,-0.3688342869281769,-0.04377644509077072,-0.09778652340173721
1.415649175643921,0.057138554751873016,0.002645738422870636,0.645045280456543,0.09405592083930969,0.15767517685890198,-0.12591329216957092
1.5170903205871582,0.4429548382759094,-0.8486225605010986,0.3665785491466522,0.29359835386276245,0.3502601683139801,-0.4056565761566162
1.6179513931274414,0.37967243790626526,-0.8401173949241638,0.38076016306877136,0.3446024954319,0.37374043464660645,-0.35440656542778015
1.7187402248382568,0.19691205024719238,-0.3623358905315399,0.8485049605369568,0.3943967819213867,0.2094474732875824,-0.1991211473941803
1.8194963932037354,-0.1869482398033142,-0.3577803671360016,0.6576516628265381,0.2981152832508087,0.08247885853052139,-0.22141338884830475
1.9203407764434814,0.3925171196460724,-1.0212113857269287,0.721967875957489,0.1892205774784088,0.060764115303754807,-0.34711503982543945
2.021719455718994,-0.16173583269119263,-1.0689703226089478,0.1389196664094925,-0.0258758757263422,0.06874387711286545,-0.6326430439949036
2.1227378845214844,0.0678703635931015,-1.1350548267364502,0.16696466505527496,-0.06364508718252182,-0.009647015482187271,-0.6143723726272583
2.2238924503326416,-0.3762914538383484,-0.47995397448539734,0.7461956739425659,-0.06426206976175308,-0.14125744998455048,-0.42462465167045593
2.324928045272827,-0.2976234555244446,-0.36088696122169495,0.6940452456474304,-0.1547912359237671,-0.244156613945961,-0.27617159485816956
2.425973653793335,-0.40289077162742615,-1.0945883989334106,0.14130856096744537,-0.29389646649360657,-0.37972700595855713,-0.3563123643398285
2.5273168087005615,-0.012083638459444046,-0.9419500231742859,-0.051418934017419815,-0.3746006190776825,-0.437401682138443,-0.4848841428756714
2.628159284591675,-0.33843034505844116,-1.458219051361084,0.21112015843391418,-0.3955427408218384,-0.4239647388458252,-0.5113452672958374
2.7290055751800537,-0.54706209897995,-1.4755885601043701,0.92864590883255,-0.4520616829395294,-0.3781897723674774,-0.38564354181289673
2.8298630714416504,-0.07930903881788254,0.3186810612678528,-0.16810433566570282,-0.4058152437210083,-0.25422194600105286,0.05555913224816322
2.9308183193206787,-0.8094565272331238,0.3713633418083191,1.1090439558029175,-0.3128649592399597,-0.10881718248128891,0.25592711567878723
3.032242774963379,0.6485745906829834,0.48442843556404114,0.39980804920196533,-0.158807173371315,0.42868658900260925,0.19418196380138397
3.1331653594970703,0.30427223443984985,0.4412762224674225,0.10479556024074554,-0.14668071269989014,0.611044704914093,0.007798112463206053
3.2343740463256836,0.9263275265693665,0.005457442253828049,-0.007626540958881378,-0.11615598946809769,0.5915472507476807,-0.1513185054063797
3.335451364517212,1.7820050716400146,-0.15382525324821472,0.767529308795929,-0.03215835615992546,0.4826544225215912,-0.13969214260578156
3.4363174438476562,0.27019816637039185,0.022168241441249847,0.3042340576648712,0.18415306508541107,0.24632996320724487,-0.09392543137073517
3.5374293327331543,0.1828264594078064,-0.8888380527496338,0.9625257849693298,0.30449560284614563,0.21891753375530243,-0.22451521456241608
3.6384856700897217,-0.08252883702516556,-0.8218380212783813,0.8133434653282166,0.4995315670967102,0.24148152768611908,-0.39653804898262024
3.7395877838134766,0.666000247001648,-0.9866228699684143,1.2832943201065063,0.5278623700141907,0.37608179450035095,-0.28187820315361023
3.8405423164367676,0.649103581905365,-0.8800147175788879,0.6893273591995239,0.4485180377960205,0.41792312264442444,-0.11986890435218811
3.9415841102600098,0.15217915177345276,-0.0933101698756218,0.5186066627502441,0.3514629602432251,0.2296278476715088,-0.19187024235725403
4.042880058288574,-0.23827895522117615,-0.4324762523174286,0.5436304211616516,0.29417696595191956,0.026695484295487404,-0.39995017647743225
4.143934726715088,-0.3599088490009308,-0.7541318535804749,0.5396590828895569,0.18103677034378052,-0.027380913496017456,-0.5051112771034241
4.244947195053101,-0.014577541500329971,-1.3138494491577148,0.21490615606307983,0.13279938697814941,-0.026878101751208305,-0.573959231376648
4.3457558155059814,-2.838613748550415,-1.3634915351867676,2.890178680419922,0.2215970754623413,-0.07204534113407135,-0.4908749759197235
4.446549892425537,0.22816523909568787,-0.09321006387472153,1.1841869354248047,0.41222402453422546,-0.02737295813858509,-0.03661919757723808
4.547732830047607,0.17494156956672668,0.05192293971776962,0.10426226258277893,0.4558507800102234,0.20432697236537933,0.2538514733314514
4.64855432510376,-0.5103850960731506,0.32673463225364685,-0.16196464002132416,0.46369877457618713,0.4209176003932953,0.3310799300670624
4.749403715133667,-0.08502284437417984,-0.3909017741680145,-0.1245337426662445,0.4937627911567688,0.49288681149482727,0.3176524341106415
4.850209474563599,-0.046289846301078796,-0.10055498033761978,-0.07591153681278229,0.5811131596565247,0.4692423641681671,0.4024357199668884
4.951231956481934,1.4512503147125244,0.3078681230545044,-0.1152772307395935,0.639397919178009,0.3407476246356964,0.5265882611274719
5.052894115447998,1.1554988622665405,0.00010034069418907166,-0.1773541271686554,0.687735915184021,0.2681330740451813,0.5536444187164307
5.153623580932617,0.7949308156967163,0.4435179531574249,0.3290717303752899,0.7545811533927917,0.1908911019563675,0.5256367921829224
5.254150629043579,0.5713785290718079,-0.13667616248130798,0.4188816547393799,0.8843353390693665,0.1435329020023346,0.3500944972038269
5.354970455169678,0.006588859483599663,-0.2641174793243408,0.6894426345825195,0.9768272042274475,0.15988004207611084,0.09831799566745758
5.456029891967773,0.08147495985031128,-0.08259335905313492,0.9208916425704956,0.9945459961891174,0.0377412773668766,0.04998511075973511
5.55747127532959,0.46085235476493835,-0.12851044535636902,0.5989794731140137,0.9044232964515686,-0.0921216756105423,0.2556552290916443
5.65835976600647,0.9351823329925537,-0.07693905383348465,0.5396726727485657,0.7394591569900513,-0.11639080196619034,0.4394903779029846
5.759244918823242,0.6117385029792786,-0.4080584645271301,0.4147740602493286,0.6222142577171326,-0.08012249320745468,0.4777733087539673
5.860119819641113,0.6001818776130676,-0.4445548951625824,0.5696751475334167,0.573268473148346,-0.021808724850416183,0.46744486689567566
5.96111798286438,0.20523685216903687,-0.5807133913040161,0.6575502157211304,0.4546826183795929,0.09051241725683212,0.39539068937301636
6.062406301498413,0.31858396530151367,0.034047141671180725,1.0624406337738037,0.3581974506378174,-0.035330940037965775,0.15464845299720764
6.163025379180908,0.5597338676452637,-0.03884616494178772,0.8228131532669067,0.024771256372332573,-0.21983394026756287,0.07496325671672821
6.263745069503784,0.9158938527107239,-0.16919487714767456,0.7019423842430115,-0.20774804055690765,-0.4180949628353119,-0.04374569281935692
6.364304542541504,0.9399382472038269,-0.38735440373420715,0.4336807429790497,-0.33944013714790344,-0.5048402547836304,0.01567305065691471
6.465060234069824,0.5089131593704224,-0.1942530870437622,0.9181323051452637,-0.42714428901672363,-0.3054720461368561,0.024188222363591194
6.56658935546875,-0.02138444036245346,-0.0578397661447525,0.9498046636581421,-0.27373209595680237,-0.05869545787572861,0.12100528180599213
6.667754650115967,-0.1268957257270813,-0.6645200848579407,0.5062927603721619,-0.033115945756435394,0.04099803790450096,0.48447102308273315
6.768748760223389,-0.08680673688650131,-1.0413120985031128,0.03972376137971878,0.054927922785282135,0.12537109851837158,0.6620782017707825
6.869611024856567,-0.27605095505714417,-1.053498387336731,0.46650195121765137,0.07880141586065292,0.1874329149723053,0.5171756148338318
6.9704062938690186,-0.8313479423522949,-0.163330078125,1.2849817276000977,0.04266011342406273,0.24121905863285065,0.21594789624214172
7.071498155593872,-0.2870817482471466,0.21142694354057312,1.0110987424850464,-0.05290260165929794,0.1120419055223465,0.06284458935260773
7.172428846359253,0.14966526627540588,-0.46513548493385315,0.7694013714790344,-0.03048662282526493,-0.006111752707511187,0.2086556851863861
7.2732226848602295,0.04408296197652817,-1.0400235652923584,0.345430463552475,0.0021159350872039795,-0.12258511781692505,0.49176275730133057
7.3739941120147705,-0.07866304367780685,0.08770124614238739,-0.20785833895206451,-0.01727500930428505,-0.065166175365448,0.4920867681503296
7.47498345375061,0.0316302590072155,-1.061381220817566,-0.16742762923240662,-0.01838102750480175,-0.004153380170464516,0.7246413230895996
7.576470375061035,-0.23346903920173645,-0.9874457716941833,-0.0991523414850235,-0.07865391671657562,0.07039593905210495,0.728234589099884
7.677526950836182,-0.4434387683868408,-0.6096857190132141,0.5034793615341187,-0.2057928591966629,0.19467729330062866,0.49624282121658325
7.7785491943359375,-0.7326964139938354,-0.30928677320480347,0.7701614499092102,-0.38478371500968933,0.27002307772636414,0.23404407501220703
7.879440069198608,-0.9108509421348572,-0.5157795548439026,0.12868356704711914,-0.5741718411445618,0.13546901941299438,0.5108844041824341
7.9802470207214355,-0.1674117147922516,-0.7354449033737183,-0.4228156507015228,-0.46017855405807495,-0.25533366203308105,0.7084951996803284
8.081552982330322,0.19673606753349304,-0.7636870741844177,-0.24025504291057587,-0.3712290823459625,-0.45403462648391724,0.6463136076927185
8.182460069656372,0.48600074648857117,-0.831581175327301,0.049218662083148956,-0.27214813232421875,-0.4597117006778717,0.5363733768463135
8.283435583114624,-0.15419703722000122,-0.8390839695930481,0.3923892378807068,-0.15906739234924316,-0.1227889433503151,0.5457280278205872
8.384246826171875,-0.7376292943954468,-0.42780739068984985,-0.2787228524684906,-0.08989186584949493,0.43134698271751404,0.5689607858657837
8.484890699386597,-0.651261568069458,-0.3080393671989441,-0.4937698543071747,-0.07788123190402985,0.6464778780937195,0.5228537917137146
8.653962135314941,-0.9208107590675354,0.1421794444322586,0.0767945647239685,-0.7796896696090698,0.3453228771686554,0.3611169755458832
8.754702091217041,0.5376613736152649,0.16296523809432983,-0.5046835541725159,-0.14638064801692963,-0.239226832985878,0.3602198660373688
8.85554838180542,0.41245365142822266,-1.4397679567337036,-0.14123383164405823,0.3135404586791992,-0.007155078928917646,0.6609463095664978
8.95635437965393,0.16945475339889526,-0.9580308794975281,-0.38529935479164124,0.32183608412742615,0.19598805904388428,0.7453822493553162
9.057237148284912,0.10596635937690735,-0.917233943939209,-0.45640695095062256,0.3688344359397888,0.4360494315624237,0.702824056148529
9.15877389907837,-0.11566204577684402,-0.6701816916465759,-0.002100937068462372,0.46831703186035156,0.5356510877609253,0.47398102283477783
9.259568691253662,-0.33347052335739136,-0.18619608879089355,0.9075155854225159,0.5174843668937683,0.26743757724761963,0.061074115335941315
9.3601233959198,0.39420706033706665,-0.323158860206604,0.5967283844947815,0.4853064715862274,0.05280160531401634,0.19900821149349213
9.460615396499634,-0.48652762174606323,-0.6108032464981079,0.8247858881950378,0.3729301989078522,0.08969677984714508,0.503897488117218
9.561397552490234,1.075111985206604,-0.8287354707717896,-0.050486039370298386,0.3099678158760071,-0.0681111291050911,0.69073086977005
9.662618398666382,0.6193473935127258,-0.4543152153491974,0.06920325756072998,0.24946527183055878,-0.26380330324172974,0.6512439250946045
9.763605117797852,0.6146074533462524,-0.11637065559625626,0.25295916199684143,0.1917889565229416,-0.38403722643852234,0.5789411664009094
9.864552736282349,0.6450236439704895,0.02185124158859253,-0.37867024540901184,0.18796829879283905,-0.6113716959953308,0.5971620082855225
9.965441703796387,0.4669201672077179,-0.09812384098768234,-0.7751923203468323,0.41282472014427185,-0.39015939831733704,0.7777552604675293
10.066408395767212,0.5870971083641052,-0.5778688192367554,-0.7046365141868591,0.5225062966346741,-0.07546305656433105,0.8304269313812256
10.168501853942871,-0.9303474426269531,-0.6506189703941345,0.026760460808873177,0.039426133036613464,0.5329212546348572,0.21127949655056
10.26918339729309,-0.2893766462802887,-0.8193890452384949,-0.12686674296855927,-0.0954810082912445,0.2619481086730957,0.2356456071138382
10.369735479354858,0.5116661787033081,-1.5996240377426147,-0.24842913448810577,-0.1497979611158371,-0.25745028257369995,0.6485506296157837
10.470284938812256,-0.11512605100870132,-0.9401665329933167,-0.22061453759670258,-0.2731170952320099,-0.30108898878097534,0.6725485324859619
10.571176767349243,-0.2253212332725525,-0.885931134223938,0.3285222351551056,-0.5078855752944946,-0.25249892473220825,0.5043022632598877
10.67259669303894,-0.06278933584690094,-0.9007224440574646,0.5999119877815247,-0.6186625361442566,-0.2668355703353882,0.3884427547454834
10.773757457733154,-0.07525703310966492,-0.7249645590782166,0.5421180129051208,-0.6103944182395935,-0.30030557513237,0.31703799962997437
10.874923944473267,0.26492536067962646,-0.7599878907203674,0.5222336649894714,-0.4533620774745941,-0.328988641500473,0.35574838519096375
10.97592282295227,-0.4954195022583008,-0.4652107059955597,0.398103266954422,-0.4236452877521515,-0.04062935709953308,0.49006831645965576
11.076858282089233,-0.6983283162117004,-0.1159149631857872,0.26696816086769104,-0.4197501242160797,0.2553161680698395,0.5220035314559937
11.178071022033691,-0.7009552717208862,-0.49126335978507996,0.4206818640232086,-0.33665403723716736,0.30374228954315186,0.60992032289505
11.278952360153198,-0.3969959318637848,-0.6733829379081726,-0.44311144948005676,-0.23364722728729248,0.23491054773330688,0.7816658616065979
11.379754066467285,-0.7490960359573364,-0.6222847700119019,-0.42730456590652466,-0.2239975780248642,0.23783601820468903,0.8106145858764648
11.480509757995605,-0.6416246891021729,-0.7322724461555481,-0.14197663962841034,-0.13900238275527954,0.2776188552379608,0.7532619833946228
11.581146478652954,-0.431488037109375,-0.7992956042289734,0.12247546017169952,0.09862518310546875,0.2695538401603699,0.5671953558921814
11.682143211364746,-0.09101663529872894,-0.7250345945358276,0.5883640646934509,0.2638971507549286,0.1799091249704361,0.40513020753860474
11.7832510471344,0.08218096196651459,-0.3335011899471283,0.8810576796531677,0.21823300421237946,0.03418773040175438,0.2153366655111313
11.884093046188354,-0.11084114760160446,-0.4881875813007355,1.1091609001159668,-0.18408705294132233,-0.035584527999162674,0.13765595853328705
11.984773874282837,-0.5081081390380859,0.058190539479255676,0.9901115894317627,-0.785568118095398,-0.004435549955815077,0.16830958425998688
12.085349798202515,-0.30465325713157654,-0.6596570014953613,0.6771422624588013,-0.8474931716918945,-0.2242017388343811,0.2447885423898697
12.186655282974243,0.04373496025800705,-0.8456170558929443,0.5325793027877808,-0.8066918849945068,-0.4210553765296936,0.18339133262634277
12.287727355957031,0.27324315905570984,-0.8167502880096436,0.708547055721283,-0.8416041135787964,-0.42980676889419556,0.09175089746713638
12.388705492019653,0.17127975821495056,-1.1224315166473389,0.6584801077842712,-0.8506134152412415,-0.4177534878253937,-0.01337707694619894
12.489393472671509,0.4422118365764618,-0.4359886944293976,0.7603851556777954,-0.8499577641487122,-0.3766098618507385,-0.0527479387819767
12.5899338722229,0.22091546654701233,-0.5094020366668701,0.7164223790168762,-0.8571303486824036,-0.3524707853794098,0.013665495440363884
12.690613508224487,0.04334995895624161,-0.7850745916366577,0.37363266944885254,-0.8608599305152893,-0.3450477421283722,0.0726461410522461
12.791221618652344,0.47164013981819153,-0.9432398676872253,0.9297916889190674,-0.8099081516265869,-0.37271133065223694,0.1495203822851181
12.891863584518433,-1.6204698085784912,-0.3754294812679291,2.206446886062622,-0.7763322591781616,-0.005050462670624256,0.2046988308429718
12.99243688583374,-0.532783567905426,0.05403634160757065,0.23633736371994019,-0.5816214084625244,0.30816590785980225,0.40049052238464355
13.093152523040771,-0.7813222408294678,-0.3596896529197693,-0.26775234937667847,-0.3950571119785309,0.46921026706695557,0.47662097215652466
13.194130659103394,-0.8061755895614624,0.08611154556274414,-0.09564372897148132,-0.2950867712497711,0.5860569477081299,0.31177690625190735
13.295217752456665,-0.8974283337593079,0.32453054189682007,0.237234964966774,-0.2529868483543396,0.5840509533882141,0.11592433601617813
13.396376132965088,-0.5595658421516418,-0.09091826528310776,0.6001216769218445,-0.20610754191875458,0.35988447070121765,0.11656779795885086
13.497413396835327,0.1850193738937378,-0.36605948209762573,0.8171693086624146,-0.0309578999876976,0.05768967047333717,0.15640640258789062
13.598453760147095,0.31135714054107666,-0.37828877568244934,0.6218702793121338,0.08135750889778137,-0.03932468220591545,0.23713210225105286
13.699957847595215,0.5278436541557312,-0.12431987375020981,0.42186295986175537,0.27353188395500183,-0.03414095565676689,0.4155709445476532
13.800745487213135,-1.136328101158142,-0.9852105975151062,2.074769973754883,0.43864157795906067,0.13771723210811615,0.6726301908493042
13.901859521865845,-0.5410692095756531,-0.8143323659896851,0.9897134900093079,0.4918721914291382,0.12448287755250931,0.6681663990020752
14.003080606460571,0.528977632522583,-0.5305179953575134,0.35034415125846863,0.6118641495704651,0.05317097529768944,0.6239657998085022
14.104163408279419,0.882868766784668,-1.1912466287612915,0.2971458435058594,0.7363991737365723,0.0409061536192894,0.5494627356529236
14.2053701877594,0.21092775464057922,-1.2295902967453003,0.4841940402984619,0.7424633502960205,0.27518409490585327,0.4237213134765625
14.306214809417725,-0.2933545708656311,-0.6458531618118286,0.2658935487270355,0.7208464741706848,0.4251963198184967,0.3517504334449768
14.407324075698853,0.028102360665798187,-0.9880402684211731,0.34141063690185547,0.8000093102455139,0.43415123224258423,0.2399805635213852
14.508286714553833,-0.6604092121124268,-0.8933934569358826,0.25297707319259644,0.802970826625824,0.5188294053077698,0.05649837851524353
14.609219789505005,-0.4431767463684082,-0.7525383234024048,0.3708949387073517,0.7775241732597351,0.5777647495269775,-0.02795032039284706
14.710496425628662,-0.11336804181337357,-1.0215539932250977,0.9671570658683777,0.7942008972167969,0.5732917189598083,-0.03511868044734001
14.811543703079224,-0.448446661233902,-0.41263288259506226,0.14309526979923248,0.8348021507263184,0.5027444958686829,-0.12192850559949875
14.912450075149536,-0.5277206301689148,-0.02498406171798706,0.9194572567939758,0.901179850101471,0.14126591384410858,-0.19651202857494354
15.013288974761963,0.9751933217048645,0.212620347738266,1.5900216102600098,0.8798524141311646,-0.0568474717438221,0.11521728336811066
15.11450457572937,0.15692904591560364,-0.5692335963249207,0.015917561948299408,0.7822244167327881,0.01725289784371853,0.3775690495967865
15.215786457061768,0.548902153968811,-0.5706750154495239,0.3739112317562103,0.6631770730018616,0.12494096904993057,0.41401413083076477
15.316620826721191,0.2994304597377777,-0.4725342094898224,0.3494453430175781,0.6094238758087158,0.10471932590007782,0.413446307182312
15.41751503944397,0.3266897201538086,-0.3332856595516205,0.3467268645763397,0.5950667858123779,-0.016985533758997917,0.4848383963108063
15.518599271774292,0.9992047548294067,-0.24583026766777039,0.7267462611198425,0.6946112513542175,-0.13210099935531616,0.3739417493343353
15.619755983352661,0.6072256565093994,-0.05518905073404312,0.8121370077133179,0.7762221693992615,-0.13132789731025696,0.12307264655828476
15.720937490463257,-0.3733365535736084,0.0754760354757309,1.2765555381774902,0.8230644464492798,0.03295694664120674,-0.13843007385730743
15.82162618637085,-1.4105063676834106,0.21913984417915344,0.7963261604309082,0.776080310344696,0.22546181082725525,-0.349355548620224
15.922624349594116,0.0852968618273735,-0.342258483171463,0.20164096355438232,0.7949199080467224,0.4338279366493225,-0.23579496145248413
16.023598670959473,-0.5455940961837769,-0.9895394444465637,0.12696996331214905,0.8662059307098389,0.4055062234401703,-0.160136878490448
16.12432551383972,-0.22771123051643372,-0.1873781681060791,0.10613146424293518,0.8958558440208435,0.3672122657299042,-0.15470264852046967
16.22490429878235,-0.42152732610702515,-0.015948355197906494,0.4830855429172516,0.9396586418151855,0.2695801258087158,-0.14950096607208252
16.32538914680481,-0.30890515446662903,-0.7136968374252319,0.3157501518726349,0.949374794960022,0.24022728204727173,-0.14952297508716583
16.425822257995605,-0.2508816421031952,-0.31533685326576233,0.24099266529083252,0.966452419757843,0.1078629419207573,-0.10934915393590927
16.526702404022217,0.2796229422092438,0.6864907741546631,3.067655324935913,0.9595789909362793,-0.04334801435470581,-0.020498188212513924
16.627768516540527,0.09974746406078339,0.025245239958167076,-0.0023196376860141754,0.8546801805496216,-0.15665963292121887,0.30920615792274475
16.729533672332764,1.7984755039215088,-0.4637995660305023,0.5453182458877563,0.7100857496261597,-0.0031098814215511084,0.5320329070091248
16.83052635192871,0.6218602657318115,0.10669144243001938,0.26567554473876953,0.638447642326355,0.011901251040399075,0.4856749176979065
16.931649923324585,0.6936545968055725,-1.361191987991333,0.3738500475883484,0.5433980822563171,-0.05023705214262009,0.40973493456840515
17.032988786697388,0.6110735535621643,-0.18883195519447327,0.4117714464664459,0.3696601688861847,-0.1749899983406067,0.3736448287963867
17.133766412734985,0.427693247795105,-1.0633599758148193,0.2954825460910797,0.19750848412513733,-0.18689551949501038,0.46725115180015564
17.234930992126465,0.3903011381626129,-0.46912655234336853,0.28932464122772217,0.04897577315568924,-0.20630745589733124,0.4691897928714752
17.33585500717163,0.3807094395160675,-1.1828974485397339,0.38326674699783325,-0.09036534279584885,-0.2610810399055481,0.4232470393180847
17.436771392822266,0.6315550208091736,-0.35322707891464233,0.5784987807273865,-0.11540362983942032,-0.34613722562789917,0.3293311893939972
17.537781953811646,0.7069951295852661,-0.2801651954650879,0.9881154298782349,-0.3188377320766449,-0.32548725605010986,0.17633138597011566
17.638559818267822,0.40735775232315063,-0.7536807060241699,0.5874940752983093,-0.49450716376304626,-0.431675523519516,0.14529719948768616
17.739732027053833,0.31883296370506287,-0.38858258724212646,0.2570304572582245,-0.5614747405052185,-0.48977264761924744,0.1664368063211441
17.840752124786377,0.24141594767570496,-0.8788098096847534,0.4125230610370636,-0.6384139657020569,-0.5523993372917175,0.18336890637874603
17.94168448448181,0.7993268370628357,-0.8063428997993469,0.8210365772247314,-0.7838093638420105,-0.4392518699169159,0.013919610530138016
18.04270577430725,0.856537401676178,-0.19214996695518494,0.6190173029899597,-0.864121675491333,-0.32969093322753906,-0.24914900958538055
18.143763065338135,0.42185136675834656,-0.4415128827095032,0.2862444519996643,-0.8291023969650269,-0.4083385467529297,-0.3818945288658142
18.245089530944824,0.7560149431228638,-1.1258726119995117,0.21310566365718842,-0.8067511320114136,-0.3764519989490509,-0.4118591547012329
18.34597611427307,0.4090096354484558,-0.020016759634017944,0.5167549252510071,-0.8456273674964905,-0.10960148274898529,-0.34887808561325073
18.446824550628662,0.5085131525993347,-0.11394906789064407,0.7942090630531311,-0.7689034938812256,0.026883332058787346,-0.28510189056396484
18.547853469848633,0.2862837314605713,0.225974440574646,0.996514081954956,-0.7450554370880127,0.11611105501651764,-0.1461063176393509
18.648777961730957,-0.06473533809185028,-0.13287067413330078,0.8903123736381531,-0.8636217713356018,-0.028906522318720818,-0.017515435814857483
18.750073671340942,-0.36860063672065735,-0.41221925616264343,0.734992504119873,-0.9384844303131104,-0.2016390562057495,0.13139556348323822
18.850917100906372,-0.3804893493652344,-0.3647220730781555,0.828108012676239,-0.9656396508216858,-0.18194027245044708,0.1854575276374817
18.951761722564697,-0.28213682770729065,-0.12727606296539307,0.986529529094696,-0.9705896377563477,-0.12609483301639557,0.16526098549365997
19.052617073059082,0.21735355257987976,-0.644818902015686,0.7041442394256592,-0.8893812298774719,-0.30336472392082214,0.10562559962272644
19.153433084487915,0.12475385516881943,0.016351141035556793,0.9804800152778625,-0.7890708446502686,-0.12191256880760193,-0.005810633767396212
19.254616260528564,-0.053538642823696136,0.18084174394607544,1.1092609167099,-0.6645855903625488,-0.05849185958504677,0.024604517966508865
19.355636596679688,-0.1941230297088623,-0.5968958735466003,0.6681668758392334,-0.2932528257369995,-0.02098134718835354,0.28262919187545776
19.456543445587158,-0.435433954000473,-0.5707012414932251,0.6707637906074524,-0.2145169973373413,0.10989280790090561,0.3720617890357971
19.557487964630127,-0.4791748523712158,-0.48664119839668274,0.6817982792854309,-0.23841698467731476,0.1657637655735016,0.2955653965473175
19.6584792137146,-0.26549026370048523,-0.489137202501297,0.7796408534049988,-0.35265547037124634,0.0510554276406765,0.320516973733902
19.75981378555298,0.19406816363334656,-0.8511762022972107,0.5630208849906921,-0.4414941072463989,-0.19598668813705444,0.30470630526542664
19.86078190803528,0.3278387486934662,-0.7592453360557556,0.24018466472625732,-0.4030960202217102,-0.4202421009540558,0.2300037443637848
19.96167278289795,0.5765854716300964,-0.5591137409210205,0.40174153447151184,-0.4056812822818756,-0.4491858184337616,0.18383407592773438
20.06251049041748,1.0244532823562622,-0.47632697224617004,1.3747462034225464,-0.4567927122116089,-0.33729055523872375,0.10130832344293594
20.163350343704224,0.062137458473443985,-0.36384546756744385,0.5970683693885803,-0.4296710789203644,-0.1969900280237198,0.08332685381174088
20.264585971832275,0.22690436244010925,-1.2736763954162598,0.5037762522697449,-0.4452117085456848,-0.19204528629779816,0.40871143341064453
20.365119695663452,-0.21262654662132263,-1.125588297843933,0.4132383465766907,-0.41614124178886414,-0.24576088786125183,0.49177369475364685
20.465577363967896,0.19262123107910156,-1.664422631263733,0.6062617897987366,-0.41111037135124207,-0.2684636414051056,0.46311521530151367
20.566380500793457,0.00935986079275608,-1.1926698684692383,0.6663015484809875,-0.4418793022632599,-0.20131529867649078,0.3418048918247223
20.66736674308777,-0.08841873705387115,-0.6372864246368408,-0.269268274307251,-0.5358552932739258,-0.15992365777492523,0.24926786124706268
20.768751621246338,1.2667169570922852,0.45837703347206116,1.2906743288040161,-0.6500678062438965,-0.21828864514827728,-0.1279781609773636
20.869722604751587,0.2074037790298462,-0.3613109588623047,-0.22673235833644867,-0.6239506006240845,-0.39537397027015686,-0.3196452856063843
20.97058939933777,1.2000477313995361,-0.12242016941308975,0.3550313413143158,-0.6691036224365234,-0.4709421992301941,-0.3504714071750641
21.071252822875977,0.9629106521606445,-0.36113426089286804,-0.09762163460254669,-0.7534573674201965,-0.3926580250263214,-0.3770590126514435
21.171722888946533,0.5390633344650269,-0.04322335869073868,0.10795126855373383,-0.8228899240493774,-0.30343639850616455,-0.4116952121257782
21.272372245788574,0.7847171425819397,-0.14577436447143555,0.22937986254692078,-0.8421095609664917,-0.3143060803413391,-0.42796823382377625
21.373370885849,0.4551975429058075,-0.964430034160614,0.3896690309047699,-0.8534529209136963,-0.3410850465297699,-0.39024826884269714
21.474308729171753,0.5407114028930664,-0.5380297303199768,0.23021046817302704,-0.8545685410499573,-0.32739952206611633,-0.3860170245170593
21.575300693511963,0.8113095164299011,-0.9408942461013794,0.5955606698989868,-0.8468083739280701,-0.26903235912323,-0.39847084879875183
21.676121711730957,0.4974764585494995,-0.4676654636859894,0.60616135597229,-0.8033564686775208,-0.2320348024368286,-0.4290933609008789
21.777363538742065,0.651731550693512,-0.43766969442367554,0.6950722932815552,-0.7720685601234436,-0.21571022272109985,-0.42748957872390747
21.878458261489868,0.41004765033721924,-0.3943301737308502,0.4453641474246979,-0.688667893409729,-0.14158621430397034,-0.45976582169532776
21.979625463485718,0.6376489996910095,-1.137595772743225,0.40071603655815125,-0.6391990184783936,-0.054100073873996735,-0.5011420249938965
22.080565929412842,0.4183424413204193,-0.5337726473808289,0.41779854893684387,-0.6236483454704285,-0.022447705268859863,-0.46489059925079346
22.181578397750854,0.7742764353752136,-0.3558715581893921,0.8495050072669983,-0.620790958404541,0.04758646339178085,-0.33155345916748047
22.283126831054688,0.7898710370063782,-0.11871907860040665,1.2351875305175781,-0.5100743174552917,0.1260996162891388,-0.23869696259498596
22.384363174438477,1.2396546602249146,-0.05995555222034454,0.5502803921699524,-0.30771133303642273,0.40494224429130554,-0.17327670753002167
22.485408544540405,0.494938462972641,0.12896394729614258,0.026155361905694008,-0.10932589322328568,0.6335753202438354,-0.09504088759422302
22.586442708969116,0.7484670281410217,-0.03265155851840973,-0.01943523809313774,-0.047039832919836044,0.6704332232475281,-0.06930450350046158
22.687485218048096,1.068613052368164,0.1541917324066162,0.2795180678367615,-0.016902120783925056,0.590084969997406,0.09512593597173691
22.78874921798706,0.7207047343254089,0.14131584763526917,0.3300986588001251,-0.0030567431822419167,0.4884563982486725,0.055785875767469406
22.889618635177612,-0.27423804998397827,-0.17460575699806213,0.8661494851112366,0.2683480381965637,0.020005304366350174,-0.16584064066410065
22.990659475326538,-0.3128260374069214,-0.5837250351905823,0.6500954627990723,0.35954365134239197,-0.006169140804558992,-0.28552451729774475
23.0917751789093,0.05614165961742401,-0.9896196722984314,0.6176794171333313,0.3410186171531677,0.17463478446006775,-0.42080673575401306
23.192936182022095,0.42514723539352417,-0.037110164761543274,0.7266965508460999,0.311460018157959,0.25115805864334106,-0.32379722595214844
23.294089317321777,0.0935426577925682,0.05842474102973938,1.4148167371749878,0.2572241723537445,0.16461168229579926,-0.15048520267009735
23.39529013633728,-0.5987728238105774,-0.03662686049938202,0.9955078363418579,0.10718563199043274,-0.12849606573581696,-0.09225472062826157
23.49636697769165,-1.2600090503692627,0.14597353339195251,0.7954350113868713,-0.045180413872003555,-0.38198480010032654,-0.14892151951789856
23.597756385803223,-0.7044001221656799,-0.82811439037323,0.02321036159992218,-0.2289283275604248,-0.5157892107963562,-0.10412207245826721
23.69883704185486,-0.8716570138931274,-0.2783740758895874,0.4139363467693329,-0.371041864156723,-0.5333694219589233,-0.03125481307506561
23.800243854522705,-1.2312376499176025,-0.3351995646953583,0.5106732845306396,-0.4379773437976837,-0.46879035234451294,0.030158432200551033
23.901166439056396,-0.3956579566001892,-0.7335103154182434,0.4651929438114166,-0.494608074426651,-0.388884574174881,-0.130706787109375
24.00213932991028,-0.4742949306964874,-0.7659856677055359,0.7467687726020813,-0.5424829721450806,-0.2776218354701996,-0.18681088089942932
24.103270769119263,0.004558959975838661,-0.5864979028701782,1.437417984008789,-0.5605188608169556,-0.21162265539169312,-0.23040957748889923
24.204480409622192,0.12947675585746765,-0.494943231344223,0.37281665205955505,-0.5498156547546387,-0.21255886554718018,-0.27475669980049133
24.306307554244995,-0.14368432760238647,-0.2981923818588257,0.6122497320175171,-0.46801769733428955,-0.19666370749473572,-0.27859795093536377
24.407580614089966,0.20845776796340942,-0.5504471659660339,0.15301045775413513,-0.42902177572250366,-0.11924485117197037,-0.2616642415523529
24.508543252944946,0.22857025265693665,-0.626770555973053,0.2385551631450653,-0.24538415670394897,0.21132156252861023,-0.35189974308013916
24.60964584350586,0.9760223627090454,-0.7442173957824707,-0.02512933686375618,-0.19098380208015442,0.2833576798439026,-0.43359696865081787
24.71072554588318,0.42495325207710266,-0.2649819850921631,0.03466576337814331,-0.17500904202461243,0.3287333846092224,-0.4454024136066437
24.812137365341187,-0.050480738282203674,0.050121840089559555,0.09544456005096436,-0.1817667931318283,0.28379297256469727,-0.2846509516239166
24.91302990913391,1.2440166473388672,0.23014935851097107,1.5571439266204834,-0.26794466376304626,0.17155426740646362,-0.16657501459121704
25.013893365859985,-0.39920395612716675,-0.09768056124448776,-0.813537061214447,-0.35226574540138245,-0.064987912774086,-0.25041770935058594
25.114884614944458,0.6779168248176575,-0.18803495168685913,0.11039575934410095,-0.4322287142276764,0.39383170008659363,-0.5154423713684082
25.215795516967773,1.1477949619293213,0.20435655117034912,0.46781685948371887,-0.5535116791725159,0.443973183631897,-0.30318310856819153
25.3174786567688,0.28073593974113464,-0.5551641583442688,1.0009706020355225,-0.5579096078872681,0.1179037094116211,-0.4771808385848999
25.418362617492676,0.5690526366233826,-0.6431978940963745,0.49829792976379395,-0.42543521523475647,0.07329583913087845,-0.5525371432304382
25.519269943237305,0.8387488126754761,0.5325857400894165,0.7885358929634094,-0.2998231053352356,0.20240981876850128,-0.5233673453330994
25.620069980621338,-0.05522453784942627,-0.9192278981208801,0.2855139672756195,-0.1549658328294754,-0.028408190235495567,-0.6155334115028381
25.72064733505249,-0.10238933563232422,-1.0656840801239014,0.16740836203098297,-0.11537329852581024,-0.09607254713773727,-0.6065675020217896
25.82150411605835,0.0711432546377182,-0.7542142271995544,0.5335513949394226,-0.026095137000083923,-0.08524473756551743,-0.46721282601356506
25.922420501708984,-0.24672073125839233,-0.0717826634645462,0.979764997959137,0.16834214329719543,-0.13385623693466187,-0.19583390653133392
26.023390531539917,-0.6380308270454407,-0.28561916947364807,0.6325550675392151,0.478605180978775,-0.13647618889808655,-0.261425256729126
26.12412667274475,-0.6215592622756958,-0.5483027100563049,0.5231314897537231,0.653186023235321,-0.04493479058146477,-0.470982164144516
26.224882125854492,-0.6728449463844299,-0.6034591197967529,0.49072474241256714,0.7396888136863708,-0.027788769453763962,-0.5040315985679626
26.326154708862305,-0.6919594407081604,-0.8224771022796631,0.48941323161125183,0.8018686771392822,0.13756249845027924,-0.49340689182281494
26.42737889289856,-0.14194431900978088,-0.9746344685554504,0.37657374143600464,0.7992477416992188,0.4116789996623993,-0.3586708605289459
26.528589010238647,0.1031164601445198,-0.9212844371795654,0.40156134963035583,0.7866145372390747,0.5237571001052856,-0.18147695064544678
26.629526376724243,0.39459604024887085,-0.47042253613471985,0.5534277558326721,0.8613035082817078,0.3647383749485016,0.04597221687436104
26.73034954071045,0.4881926476955414,0.018320739269256592,0.6778275370597839,0.8921766877174377,0.17948013544082642,0.16064247488975525
26.831448554992676,0.18741226196289062,0.09686113893985748,0.6871031522750854,0.8927573561668396,0.19198153913021088,0.11855460703372955
26.932429790496826,0.1669098436832428,-0.8646799325942993,0.9428635835647583,0.8647065162658691,0.3910292983055115,-0.13574111461639404
27.0334255695343,0.12273196130990982,-0.9524157643318176,0.20385226607322693,0.8029358983039856,0.4305157959461212,-0.11743694543838501
27.134191274642944,-1.0793354511260986,-0.472682386636734,1.460779070854187,0.8117603063583374,0.12322428822517395,-0.257739394903183
27.23507022857666,-0.009690739214420319,-0.3410874605178833,0.14521336555480957,0.7223314046859741,0.021900387480854988,-0.45455193519592285
27.336611032485962,-0.604833722114563,-1.0365746021270752,0.07889226078987122,0.5802799463272095,0.11207244545221329,-0.563861072063446
27.437350749969482,-0.24464574456214905,-1.1238782405853271,0.11747035384178162,0.4997818171977997,0.18388810753822327,-0.5734976530075073
27.53838586807251,-0.5820190906524658,-1.895370602607727,0.4330829381942749,0.40355733036994934,0.12342559546232224,-0.515440046787262
27.639724254608154,0.018276561051607132,-0.5749313235282898,-0.18514753878116608,0.3369923532009125,-0.09489122778177261,-0.49878478050231934
27.740649461746216,-0.4835377335548401,-0.666388750076294,-0.06448324024677277,0.30088502168655396,-0.17945298552513123,-0.5533108115196228
27.842416524887085,-0.06952323764562607,-0.31104576587677,-0.1859901398420334,0.2897948920726776,-0.12378263473510742,-0.5333475470542908
27.9433012008667,-1.2867553234100342,-0.03064386546611786,1.1124999523162842,0.2480507344007492,-0.07523388415575027,-0.4509390592575073
28.044248342514038,-2.110088348388672,-0.5391671657562256,2.416382074356079,0.2839682698249817,-0.1282259225845337,-0.3855534493923187
28.145278215408325,-0.14137044548988342,0.03496094048023224,0.11280865967273712,0.4454236328601837,-0.06439858675003052,-0.10318959504365921
28.246416091918945,0.6613672375679016,0.6621760725975037,1.550052523612976,0.4872245788574219,0.08093927800655365,0.01913372427225113
28.34783411026001,0.008983760140836239,-0.06132345646619797,-0.05513034388422966,0.3844831883907318,0.298397958278656,-0.5340825319290161
28.449008226394653,-1.128779411315918,-0.5239998698234558,-0.22166232764720917,0.38875022530555725,-0.20764444768428802,-0.6702709794044495
28.550063610076904,-0.9285875558853149,0.3033525347709656,0.5626029372215271,0.45576757192611694,-0.4426206350326538,-0.2128048837184906
28.65114426612854,-0.21114462614059448,-0.05629326403141022,1.0039012432098389,0.44078195095062256,-0.12385305017232895,-0.11932145059108734
28.752122402191162,0.5198118686676025,0.13632674515247345,0.9430148005485535,0.26672863960266113,0.16499315202236176,-0.028606325387954712
28.85355830192566,0.5202368497848511,-0.04259975999593735,0.852994978427887,-0.04123927652835846,0.25919264554977417,-0.040563348680734634
28.954508781433105,0.5691506862640381,-0.7578552961349487,0.3037039339542389,-0.24429011344909668,0.14545539021492004,-0.4273001551628113
29.05561113357544,-0.19743794202804565,-0.8554038405418396,0.5583277940750122,-0.20984086394309998,-0.13569055497646332,-0.4526781439781189
29.1566641330719,-0.5580348372459412,-0.30546659231185913,1.2942590713500977,-0.05396951362490654,-0.16982021927833557,-0.23147286474704742
29.2575523853302,0.12975676357746124,-0.3974492847919464,0.8235982656478882,0.11233722418546677,0.04062232747673988,-0.3511166274547577
29.358717918395996,0.019694561138749123,-0.8127087354660034,0.36523765325546265,0.2617269456386566,0.13842891156673431,-0.5225406289100647
29.45940351486206,-0.4354099631309509,-0.7954384088516235,0.15734855830669403,0.36920395493507385,0.04784464091062546,-0.6734146475791931
29.56013059616089,-0.6649551391601562,-0.7808151245117188,0.05532616376876831,0.42424526810646057,-0.030135558918118477,-0.6897836923599243
29.66117024421692,-0.9033721089363098,-0.3447892665863037,0.19554835557937622,0.5520033240318298,-0.20509305596351624,-0.6272971630096436
29.761964321136475,-1.1406949758529663,-0.13745957612991333,0.6532317996025085,0.7193238139152527,-0.29312294721603394,-0.4434502422809601
29.862767696380615,-0.5348434448242188,-0.4849992096424103,0.4476340413093567,0.8201435208320618,0.1334323137998581,-0.3821355402469635
29.963297843933105,-0.2297501564025879,-0.7186089754104614,0.35240355134010315,0.7550504207611084,0.39528149366378784,-0.3484567105770111
30.064100742340088,0.07807005941867828,-0.4787103235721588,0.41446736454963684,0.7609049677848816,0.43067988753318787,-0.24791844189167023
30.165186405181885,0.1737656593322754,-0.7150317430496216,0.46995094418525696,0.6802205443382263,0.4098656177520752,-0.14893871545791626
30.266240119934082,-0.40810462832450867,-0.333181768655777,0.9557576775550842,0.6385267376899719,0.22271335124969482,-0.312267541885376
30.367647647857666,0.1362355649471283,-0.143934965133667,0.30062785744667053,0.6302416920661926,0.16160142421722412,-0.44420763850212097
30.468403100967407,-0.16429385542869568,-0.15697085857391357,0.29012244939804077,0.6338030099868774,0.1719561666250229,-0.4058360755443573
30.56925368309021,-0.32149285078048706,-0.36014094948768616,0.5848146677017212,0.6533225774765015,0.1752714067697525,-0.37668681144714355
30.67016077041626,-0.24857264757156372,-1.5141226053237915,-0.7849631309509277,0.6607903242111206,0.33151817321777344,-0.4079435467720032
30.771189212799072,-0.06495833396911621,-0.9636387228965759,-1.2523761987686157,0.3000669479370117,0.6666179895401001,-0.6636905074119568
30.872251272201538,-0.18462532758712769,-0.42666277289390564,-0.7868931889533997,0.2327858954668045,0.7205674052238464,-0.6476187705993652
30.97303295135498,-0.009159738197922707,-0.7489957809448242,-0.4038812518119812,0.3805270195007324,0.701294481754303,-0.594628632068634
31.074580907821655,-0.5624677538871765,-0.8002511858940125,-0.2531180679798126,0.609864354133606,0.4969926178455353,-0.5929004549980164
31.175316333770752,-0.9421441555023193,-0.5088734030723572,0.41533756256103516,0.766417384147644,0.1787574142217636,-0.5202873945236206
31.27617311477661,-0.5674076080322266,-0.008328661322593689,0.8487714529037476,0.8057186603546143,0.00040379512938670814,-0.4983411133289337
31.37755823135376,-0.8184512257575989,-0.5653235912322998,1.1438510417938232,0.8184518218040466,0.17437265813350677,-0.5271855592727661
31.478339195251465,-0.7926589250564575,-0.5152360200881958,-0.22204403579235077,0.7015395760536194,0.4621849060058594,-0.5384502410888672
31.578807592391968,-0.8427855968475342,-0.9372711181640625,-0.21321411430835724,0.6292637586593628,0.5639135837554932,-0.5326282382011414
31.679502248764038,-0.43152105808258057,-0.8228206634521484,0.040844861418008804,0.6970705389976501,0.4809027910232544,-0.5239219069480896
31.78021550178528,-0.6538684368133545,-0.4666958153247833,0.18885746598243713,0.7524548768997192,0.3052983582019806,-0.5524463057518005
31.881467819213867,-1.0856555700302124,-0.1485978662967682,0.37096214294433594,0.7444693446159363,0.05702539160847664,-0.6225889921188354
31.9823579788208,-0.5717325806617737,-0.26309970021247864,-0.045352835208177567,0.729388952255249,-0.02433098666369915,-0.6522254943847656
32.08334422111511,-1.0974211692810059,-0.2158505916595459,0.28889667987823486,0.752600908279419,0.07549385726451874,-0.6113654971122742
32.184547424316406,-1.0455363988876343,-0.4663828909397125,0.06770236790180206,0.7251830101013184,0.1277197301387787,-0.6397417783737183
32.28564453125,-0.8429386019706726,-0.9012342691421509,-0.24801354110240936,0.5767704844474792,0.35671180486679077,-0.6951846480369568
32.38739562034607,-0.5620277523994446,-0.9004091620445251,-0.14480522274971008,0.5726431012153625,0.3789188265800476,-0.6277838945388794
32.488579988479614,-0.07108413428068161,-0.8795159459114075,0.3474503457546234,0.5834950804710388,0.35753780603408813,-0.4568778872489929
32.58924579620361,0.2686622440814972,-0.546394407749176,0.8570876121520996,0.522059440612793,0.36853528022766113,-0.18613427877426147
32.689961194992065,0.8331069350242615,-0.39797067642211914,0.36529844999313354,0.3181045353412628,0.4347236454486847,-0.11990460753440857
32.79102873802185,0.6950624585151672,-0.5596247315406799,0.2723221480846405,0.10189639776945114,0.5172236561775208,-0.22761130332946777
32.89256811141968,0.8643571138381958,-0.3298349976539612,0.2226046770811081,-0.03837244212627411,0.5337666869163513,-0.25805819034576416
32.993579387664795,0.9827211499214172,-0.23533910512924194,0.22946026921272278,-0.16745130717754364,0.4680516719818115,-0.3311544358730316
33.094560623168945,0.44480374455451965,-0.17874675989151,0.2994660437107086,-0.16771885752677917,0.2852955758571625,-0.4212237298488617
33.195610761642456,0.38406431674957275,-0.9639495015144348,0.43082424998283386,-0.1298053115606308,0.1299666315317154,-0.4646807312965393
33.29657196998596,0.07555115967988968,-0.9687531590461731,0.3813522458076477,-0.06588006764650345,0.0514351986348629,-0.4135821461677551
33.3977484703064,0.1274738609790802,-1.097248911857605,0.47902712225914,-0.06720515340566635,0.05493813008069992,-0.3422694504261017
33.49852395057678,0.13482065498828888,-0.3306489884853363,1.8528615236282349,-0.05357096344232559,0.02158266492187977,-0.21998323500156403
33.59942173957825,-0.10132543742656708,0.13915812969207764,0.7508500814437866,-0.0604654885828495,0.008456435054540634,-0.18565979599952698
33.70037889480591,0.4872787296772003,-1.2067826986312866,0.16419266164302826,-0.08708646148443222,0.056179072707891464,-0.5244284272193909
33.80145597457886,0.18583935499191284,-1.0193915367126465,-0.0862339437007904,-0.05315370112657547,0.07400234043598175,-0.7307744026184082
33.902628898620605,0.22541335225105286,-1.0395699739456177,-0.11262913048267365,-0.07082074880599976,0.075165294110775,-0.7134273052215576
34.00368666648865,0.19826605916023254,-1.0846441984176636,0.20108136534690857,-0.04915370047092438,0.05372775346040726,-0.5975948572158813
34.10477089881897,0.1030784547328949,-0.905379056930542,0.40939056873321533,-0.030669335275888443,0.050651680678129196,-0.5429702401161194
34.2057626247406,0.015905659645795822,-0.8448145389556885,0.41937974095344543,0.0032306858338415623,0.02560591697692871,-0.5643196105957031
34.306644439697266,0.09531866014003754,-1.0043880939483643,0.292339950799942,-0.0283938217908144,0.04071430861949921,-0.6081781387329102
34.407835483551025,0.3517901599407196,-0.8430599570274353,0.21707086265087128,-0.13587062060832977,0.10008379817008972,-0.6119781732559204
34.50883388519287,0.46231433749198914,-0.768453061580658,0.23143906891345978,-0.21192079782485962,0.14343059062957764,-0.6028253436088562
34.60969614982605,0.7106490731239319,-0.5431498289108276,0.12907515466213226,-0.4529893696308136,0.2207564115524292,-0.6355119347572327
34.710511684417725,0.963374674320221,-0.4298514723777771,0.10400156676769257,-0.5407281517982483,0.25709107518196106,-0.6234140992164612
34.811442852020264,0.9711804389953613,-0.3625422418117523,0.1820981651544571,-0.5701377391815186,0.2574942111968994,-0.6075199246406555
34.91307067871094,0.8143014311790466,-0.7639563679695129,0.2585647702217102,-0.5676282644271851,0.13713228702545166,-0.6083893179893494
35.01417517662048,0.639961838722229,-0.6743791103363037,0.20852836966514587,-0.5019202828407288,0.010559880174696445,-0.6133307218551636
35.11529207229614,1.6530952453613281,-0.4974418580532074,1.2059216499328613,-0.5266662836074829,0.1292455494403839,-0.49915623664855957
35.21616864204407,0.6243282556533813,-0.686738908290863,0.32461315393447876,-0.5146019458770752,-0.039954155683517456,-0.5947867035865784
35.31705665588379,0.31503602862358093,-0.6610720157623291,-0.2644282579421997,-0.435800164937973,-0.2731402516365051,-0.7086613774299622
35.41847491264343,0.4933895468711853,-0.7784938812255859,-0.233830526471138,-0.4757208824157715,-0.2563149929046631,-0.7394324541091919
35.519476890563965,0.6197693347930908,-0.7357017993927002,-0.26583635807037354,-0.5125113725662231,-0.23775672912597656,-0.7580164670944214
35.6203932762146,0.65925133228302,-0.6924806833267212,-0.21432353556156158,-0.5442620515823364,-0.2280743420124054,-0.7473336458206177
35.721327781677246,0.6514065861701965,-0.672939121723175,-0.11735112965106964,-0.5723905563354492,-0.2181147187948227,-0.7196229696273804
35.82227659225464,0.7975788116455078,-0.6067565083503723,-0.07894264161586761,-0.6250714063644409,-0.1513378769159317,-0.6942622065544128
35.92364430427551,0.884097695350647,-0.3811347782611847,0.07528936117887497,-0.68815016746521,-0.0667383000254631,-0.6778894662857056
36.02465867996216,0.8684200048446655,-0.4248614013195038,0.08253335952758789,-0.7048051357269287,-0.06690319627523422,-0.667905867099762
36.125274419784546,0.8960763216018677,-0.3895529806613922,0.14540305733680725,-0.716293454170227,-0.056306492537260056,-0.6556383967399597
36.22570013999939,0.9115738868713379,-0.2663363516330719,0.18507026135921478,-0.7362493872642517,-0.04864168167114258,-0.6336057782173157
36.326470375061035,0.8329489231109619,-0.46044525504112244,0.09326046705245972,-0.7311565279960632,-0.11650995910167694,-0.6370992064476013
36.42800545692444,0.6551404595375061,-0.5223938226699829,0.06582535803318024,-0.7260271310806274,-0.28643834590911865,-0.5787271857261658
36.52910900115967,0.1545361578464508,-0.9533302187919617,0.3326684534549713,-0.7345815896987915,-0.3833305537700653,-0.3710101544857025
36.630170822143555,0.2987014651298523,-0.06783445924520493,0.735454797744751,-0.7871914505958557,-0.11746174097061157,-0.09565761685371399
36.73130798339844,0.5668296217918396,0.26756203174591064,0.9096349477767944,-0.4733049273490906,0.22177113592624664,-0.08621037751436234
36.8323028087616,0.683053731918335,-0.5116835236549377,0.2722552716732025,0.015143136493861675,0.393014132976532,-0.35712820291519165
36.93343186378479,0.8528774380683899,-0.4690874516963959,0.19460757076740265,0.014677811414003372,0.5212383270263672,-0.2556881606578827
37.03426241874695,0.8153243064880371,0.35433122515678406,0.6048159003257751,-0.02822401374578476,0.46641016006469727,-0.02241944894194603
37.13511085510254,0.3304866552352905,-0.10020826011896133,0.774843156337738,-0.1871364712715149,0.235293909907341,-0.09227684885263443
37.23600244522095,0.3939380347728729,-0.13692715764045715,0.8265538215637207,-0.28750091791152954,0.1394493728876114,-0.14831961691379547
37.336976766586304,0.15680107474327087,-0.13916927576065063,0.933955192565918,-0.7534571886062622,-0.07309029251337051,-0.15637578070163727
37.43838548660278,0.44141685962677,-0.09804514795541763,0.9364621639251709,-0.9760671854019165,-0.074927419424057,-0.19705279171466827
37.539958000183105,0.41375356912612915,-0.16879847645759583,0.784148633480072,-0.9661330580711365,-0.12700074911117554,-0.2081967294216156
37.64120149612427,0.3114491403102875,-0.3431583642959595,0.7773182988166809,-0.9189262390136719,-0.21692103147506714,-0.15477225184440613
37.742345571517944,0.4746130406856537,-0.8371732234954834,0.41002556681632996,-0.7513640522956848,-0.4679024815559387,-0.011303922161459923
37.843297481536865,0.08305196464061737,-0.6638434529304504,0.7826647162437439,-0.7413195371627808,-0.3215351402759552,0.11402442306280136
37.94485521316528,-0.2932405471801758,-0.4570973813533783,0.8024603724479675,-0.741923451423645,-0.09371040761470795,0.22793936729431152
38.04584836959839,-0.07522803544998169,-0.6541302800178528,0.7326534986495972,-0.613635778427124,-0.05897507444024086,0.3002093732357025
38.14681124687195,-0.5192188620567322,-0.2676636874675751,0.8099410533905029,-0.4567621052265167,0.12056080996990204,0.25727003812789917
38.247878313064575,-0.765592634677887,0.11343534290790558,0.7828149199485779,-0.23101463913917542,0.3250722885131836,0.18061332404613495
38.34879541397095,-0.8646110892295837,0.10704314708709717,0.6486169695854187,-0.02191273495554924,0.42042893171310425,0.08703726530075073
38.450077056884766,-0.697774350643158,-0.10614117234945297,0.7251629829406738,0.05574134364724159,0.38123005628585815,0.06218293681740761
38.550945520401,-0.3247387409210205,-0.4100206792354584,1.0232701301574707,0.022883174940943718,0.09894708544015884,0.07812046259641647
38.65196132659912,0.07657106220722198,0.2047223448753357,0.8559532165527344,-0.15493184328079224,0.026793383061885834,0.06917450577020645
38.75283861160278,-0.1778484582901001,-0.8154973387718201,0.5084454417228699,-0.5589030981063843,-0.17053087055683136,0.36718159914016724
38.853761196136475,-0.1025463417172432,-0.8641020655632019,0.5215409994125366,-0.5696427822113037,-0.22974160313606262,0.36940303444862366
38.955382347106934,0.07475315779447556,-0.5756217837333679,0.6857790350914001,-0.6069626808166504,-0.24191050231456757,0.2523455023765564
39.05655884742737,0.26424336433410645,-0.3988152742385864,0.8420628905296326,-0.5510438680648804,-0.22520430386066437,0.15785415470600128
39.15754294395447,-0.2937355637550354,-0.3173238933086395,0.7447813749313354,-0.4183278977870941,-0.03502729535102844,0.17755067348480225
39.2584867477417,-0.8621681332588196,-0.5483527183532715,1.014840006828308,0.00476914644241333,0.19414328038692474,0.20144011080265045
39.35959315299988,-0.5350114703178406,-0.3306707441806793,0.6812140941619873,0.3021984100341797,0.33505645394325256,0.16450758278369904
39.46092939376831,-0.43122005462646484,-0.6584039926528931,0.6666154861450195,0.47778210043907166,0.37821847200393677,0.18840625882148743
39.561877965927124,-0.24930962920188904,-0.6206844449043274,0.7522798776626587,0.5562593936920166,0.2990323305130005,0.20551112294197083
39.662890911102295,-0.22045132517814636,-1.0470026731491089,0.6657547950744629,0.5550571084022522,0.2765520513057709,0.2540169954299927
39.764018535614014,0.18907123804092407,-0.4295155704021454,0.7432301640510559,0.5671736001968384,0.17375940084457397,0.2996795177459717
39.865129709243774,0.1373465657234192,-0.37663528323173523,0.6219556927680969,0.5633416771888733,0.10367846488952637,0.3160480260848999
39.96649932861328,0.14645236730575562,-0.727962076663971,0.7294331192970276,0.5452532768249512,0.1297507882118225,0.3546680808067322
40.06740665435791,0.482794851064682,-0.7633728384971619,0.7987621426582336,0.6185075044631958,0.09181580692529678,0.3509393036365509
40.16844606399536,-0.22416532039642334,0.07815754413604736,0.41401514410972595,0.7758071422576904,0.03474486246705055,-0.026070432737469673
40.269763708114624,-0.42882513999938965,-0.08119595795869827,0.8087953925132751,0.7972486019134521,0.13207557797431946,-0.1967017501592636
40.3708770275116,-1.0531753301620483,-0.45942720770835876,0.2966351807117462,0.7479064464569092,0.4683493375778198,-0.3163422644138336
40.4723699092865,-0.8081505298614502,-0.45323851704597473,0.18165716528892517,0.7685417532920837,0.4878748059272766,-0.3574201166629791
40.573062896728516,-0.7014762759208679,-0.24104005098342896,0.6041721105575562,0.8787362575531006,0.30706357955932617,-0.3607848882675171
40.67377686500549,-0.899452269077301,-0.16734376549720764,0.5884972810745239,0.8985767960548401,0.15839044749736786,-0.402819961309433
40.7747597694397,-0.38884612917900085,-0.24081498384475708,0.7701923847198486,0.9304761290550232,0.2153930515050888,-0.21424514055252075
40.87581920623779,0.17422565817832947,-1.0123237371444702,0.12708215415477753,0.8279697895050049,0.4951764643192291,0.1189597025513649
40.97703456878662,0.25317466259002686,-0.8470020294189453,0.40514475107192993,0.7979796528816223,0.5115038752555847,0.20724444091320038
41.07768130302429,0.18590936064720154,-0.7634724974632263,0.5748480558395386,0.8881853818893433,0.34259116649627686,0.20252269506454468
41.17837190628052,-0.16978374123573303,0.3611026406288147,0.31152915954589844,0.9945961236953735,-0.01686428301036358,0.061828214675188065
41.27938389778137,-0.310707151889801,-0.013378262519836426,0.559287428855896,0.9845831394195557,-0.14446868002414703,-0.09688194841146469
41.38050556182861,-0.949612021446228,0.5840515494346619,0.24491827189922333,0.8497194647789001,-0.2568703591823578,-0.43276628851890564
41.482951164245605,-0.7420522570610046,-0.09497696906328201,0.1418556571006775,0.8072202205657959,-0.0656626969575882,-0.5470767617225647
41.584238052368164,-1.1723413467407227,-0.21201246976852417,0.4697551429271698,0.8097292184829712,0.04619145765900612,-0.49267491698265076
41.68537425994873,-0.1477082371711731,-0.191486656665802,0.8106080889701843,0.7925822138786316,0.1599610447883606,-0.3108888864517212
41.78641390800476,0.011707760393619537,-0.6704646348953247,0.641305685043335,0.6477100253105164,0.2316499501466751,-0.25774726271629333
41.88752865791321,-0.33178454637527466,-0.9530858397483826,0.4152199327945709,0.4987892806529999,0.1545373946428299,-0.4201662838459015
41.98890161514282,-0.13961943984031677,-0.5942273139953613,-0.002314738929271698,0.44533413648605347,0.024934370070695877,-0.5683798789978027
42.089404582977295,-0.6449896693229675,-0.5964754819869995,0.6427822709083557,0.45989009737968445,-0.05189521238207817,-0.5241988301277161
42.19015455245972,-0.6126364469528198,-0.6467156410217285,1.0858969688415527,0.473728746175766,-0.0807042121887207,-0.3998886048793793
42.29107356071472,-0.6272462010383606,-0.045265160501003265,0.3542267680168152,0.44348326325416565,-0.09209543466567993,-0.2966902256011963
42.39213252067566,0.1394214630126953,-0.054421260952949524,-0.09107643365859985,0.434027761220932,0.4296236038208008,-0.2706826627254486
42.49348711967468,1.033411979675293,-0.05974516272544861,0.07986476272344589,0.30855628848075867,0.6580382585525513,0.1399390995502472
42.59417963027954,0.8947923183441162,-0.06162375956773758,-0.08624093234539032,0.31060394644737244,0.7146099209785461,0.16616176068782806
42.6949577331543,0.899296224117279,-0.26863548159599304,-0.1452256292104721,0.2986011207103729,0.7453506588935852,0.055164337158203125
42.795961141586304,0.7185308337211609,-0.6061815023422241,-0.04184264317154884,0.30092766880989075,0.7159500122070312,-0.12040674686431885
42.89691495895386,0.6872386336326599,-0.6899265646934509,0.030900362879037857,0.3052363097667694,0.6808052062988281,-0.1891884058713913
42.99832057952881,0.5492401719093323,-0.7847504615783691,0.13232606649398804,0.3205966055393219,0.5936707258224487,-0.28364211320877075
43.099146604537964,0.5374244451522827,-0.7729941010475159,0.1981193572282791,0.3208242654800415,0.5502821207046509,-0.3091426491737366
43.20011496543884,0.6281581521034241,-0.6863144636154175,0.227634459733963,0.32273799180984497,0.5528467893600464,-0.2603915333747864
43.30119705200195,0.7267796993255615,-0.5759820938110352,0.29624414443969727,0.3269530236721039,0.5661085844039917,-0.18736104667186737
43.402182817459106,0.679503858089447,-0.6313800811767578,0.3066323399543762,0.3301962912082672,0.5573440790176392,-0.17897821962833405
43.503541469573975,0.6321350336074829,-0.6509630680084229,0.3288123607635498,0.33427393436431885,0.541695237159729,-0.20154926180839539
43.60454702377319,0.6597883701324463,-0.6392907500267029,0.33334705233573914,0.3344300091266632,0.5416874885559082,-0.19555039703845978
43.70556116104126,0.6676761507987976,-0.6353440880775452,0.32577046751976013,0.3339473009109497,0.5420464277267456,-0.19686435163021088
43.80655002593994,0.6518535614013672,-0.6391222476959229,0.313761442899704,0.33377233147621155,0.5418956279754639,-0.19755971431732178
43.90759992599487,0.6676591038703918,-0.6313400268554688,0.32190385460853577,0.3328462243080139,0.5426740646362305,-0.19832706451416016
44.00880670547485,0.6518716216087341,-0.6352476477622986,0.33707305788993835,0.33181554079055786,0.5434110760688782,-0.20080341398715973
44.10981631278992,0.6202483773231506,-0.646826446056366,0.320804238319397,0.33253341913223267,0.5483340620994568,-0.2262488603591919
44.21095061302185,0.6007788777351379,-0.8054129481315613,0.1838417649269104,0.3361424207687378,0.555824339389801,-0.29814109206199646
44.31215715408325,0.5138270854949951,-0.8560197353363037,0.10408316552639008,0.33324041962623596,0.5644571185112,-0.35247981548309326
44.413177728652954,0.4899826645851135,-0.8159542679786682,0.10760796070098877,0.33453473448753357,0.5640981793403625,-0.3542429804801941
44.51462364196777,0.5339455008506775,-0.9244829416275024,0.21295547485351562,0.3467708230018616,0.5563362836837769,-0.3384612798690796
44.61586356163025,0.4662242531776428,-0.6500886082649231,0.47660914063453674,0.4047035574913025,0.49921518564224243,-0.2586513161659241
44.716920614242554,0.5489381551742554,-0.4841018617153168,0.6072192788124084,0.4422406256198883,0.41667047142982483,-0.10752376914024353
44.818023443222046,0.5486961603164673,-0.3610292673110962,0.7086628675460815,0.4315624535083771,0.37428513169288635,-0.04257626831531525
44.91903877258301,0.5286906361579895,-0.24963098764419556,0.7902140021324158,0.4375580847263336,0.3361916244029999,-0.00295008416287601
45.020246267318726,0.4692491590976715,-0.1934475600719452,0.827969491481781,0.438919335603714,0.31208109855651855,0.0064549739472568035
45.12103581428528,0.4573584496974945,-0.18141376972198486,0.835523784160614,0.4445481300354004,0.2875056266784668,0.016228416934609413
45.221951484680176,0.4732690453529358,-0.21343207359313965,0.8318583965301514,0.4410417377948761,0.2744256854057312,0.022117508575320244
45.322832345962524,0.48509272933006287,-0.2015707790851593,0.8282827138900757,0.4407680332660675,0.27483606338500977,0.021427921950817108
45.42382836341858,0.4771709442138672,-0.19750916957855225,0.828126072883606,0.4406297206878662,0.27502989768981934,0.02141375094652176
45.52507448196411,0.47718295454978943,-0.20149478316307068,0.8281100988388062,0.4405137896537781,0.2753354609012604,0.021872984245419502
45.62602472305298,0.48113584518432617,-0.19758418202400208,0.8359775543212891,0.4404701888561249,0.27559664845466614,0.02184046059846878
45.72701454162598,0.48510971665382385,-0.2055748701095581,0.8321492671966553,0.4404152035713196,0.2757234275341034,0.02192256972193718
45.82804727554321,0.48115983605384827,-0.20555537939071655,0.8359455466270447,0.44039180874824524,0.27562403678894043,0.022007498890161514
45.92901539802551,0.47718796133995056,-0.20151329040527344,0.8319926857948303,0.4403773546218872,0.2754993438720703,0.02198786288499832
46.0304069519043,0.4771709442138672,-0.19750916957855225,0.828126072883606,0.4403344392776489,0.2757350504398346,0.02193472906947136
46.131675004959106,0.4771929681301117,-0.2015317678451538,0.8358752727508545,0.44033893942832947,0.27564263343811035,0.021779334172606468
46.232654333114624,0.4771709442138672,-0.19750916957855225,0.828126072883606,0.4403000771999359,0.275524377822876,0.02184440940618515
46.333576679229736,0.4811258316040039,-0.19754716753959656,0.8282123804092407,0.4403013586997986,0.2755548357963562,0.02168104611337185
46.43500733375549,0.48113784193992615,-0.201532781124115,0.8281964063644409,0.4402841329574585,0.27554020285606384,0.02171703614294529
46.53643226623535,0.47718796133995056,-0.20151329040527344,0.8319926857948303,0.4402877390384674,0.2756001651287079,0.02168995887041092
46.637617111206055,0.47717297077178955,-0.20145776867866516,0.820344865322113,0.44027841091156006,0.2753661572933197,0.02165471576154232
46.73856973648071,0.48113784193992615,-0.201532781124115,0.8281964063644409,0.4402492940425873,0.27552223205566406,0.02166220173239708
46.83977484703064,0.47718995809555054,-0.20546188950538635,0.8242114782333374,0.4402189254760742,0.2755378186702728,0.02166704647243023
46.940897941589355,0.48113784193992615,-0.201532781124115,0.8281964063644409,0.44023847579956055,0.275699645280838,0.021404685452580452
47.04241633415222,0.4771709442138672,-0.19750916957855225,0.828126072883606,0.44018977880477905,0.2754671275615692,0.021618342027068138
47.14329719543457,0.48113083839416504,-0.19756567478179932,0.8320949673652649,0.4401623606681824,0.275617778301239,0.021624188870191574
47.244179248809814,0.48508572578430176,-0.19760367274284363,0.8321812748908997,0.4401583671569824,0.27566829323768616,0.021509937942028046
47.34524893760681,0.4811718463897705,-0.2095409631729126,0.8359295725822449,0.440244197845459,0.2754223942756653,0.021228758618235588
47.4462034702301,0.4652562439441681,-0.17750415205955505,0.8357123732566833,0.4403029680252075,0.27506038546562195,0.020753011107444763
47.54756784439087,0.48112887144088745,-0.1936170756816864,0.8398761749267578,0.4404352009296417,0.27497386932373047,0.020003583282232285
47.648738384246826,0.48119083046913147,-0.2174936830997467,0.8320149779319763,0.44040292501449585,0.2750200927257538,0.01998244598507881
47.74974274635315,0.47322604060173035,-0.19750818610191345,0.8358049392700195,0.4404063820838928,0.2748614549636841,0.019943922758102417
47.850664138793945,0.47325703501701355,-0.20944646000862122,0.8318743705749512,0.440362811088562,0.2749730348587036,0.019974900409579277
47.9516875743866,0.481149822473526,-0.20551836490631104,0.8281803727149963,0.4402662515640259,0.27486899495124817,0.020353861153125763
48.05297541618347,0.4811328649520874,-0.20151427388191223,0.8243138194084167,0.44026702642440796,0.2750662565231323,0.020198879763484
48.15369486808777,0.47717297077178955,-0.20145776867866516,0.820344865322113,0.4403049945831299,0.2750033140182495,0.02004501223564148
48.25484871864319,0.47718796133995056,-0.20151329040527344,0.8319926857948303,0.4402923583984375,0.27484580874443054,0.020126286894083023
48.355782985687256,0.47720494866371155,-0.20551738142967224,0.8358592391014099,0.44029513001441956,0.2748798131942749,0.0200502946972847
48.456921339035034,0.48510274291038513,-0.20160776376724243,0.836047887802124,0.44025421142578125,0.27490389347076416,0.020158817991614342
48.558566093444824,0.48115482926368713,-0.2055368721485138,0.8320629596710205,0.4402160346508026,0.2749873995780945,0.02018713392317295
48.65982246398926,0.48115482926368713,-0.2055368721485138,0.8320629596710205,0.4402173161506653,0.274679958820343,0.020313849672675133
48.76078701019287,0.4771999418735504,-0.20549887418746948,0.8319766521453857,0.4402434825897217,0.27474626898765564,0.020139561966061592
48.86162781715393,0.48511672019958496,-0.2095419466495514,0.8282507061958313,0.4401918351650238,0.274944931268692,0.020236721262335777
48.96262717247009,0.4851677417755127,-0.22155427932739258,0.8398504853248596,0.4402018189430237,0.2750145494937897,0.020028499886393547
49.06397533416748,0.4771859645843506,-0.19756466150283813,0.8397738337516785,0.4402114152908325,0.2750731408596039,0.019945072010159492
49.16492033004761,0.4811478555202484,-0.20156976580619812,0.8359615802764893,0.4402583837509155,0.27479496598243713,0.019806772470474243
49.2658588886261,0.48509374260902405,-0.19369205832481384,0.8477277159690857,0.4402500092983246,0.2745479345321655,0.019950713962316513
49.366780042648315,0.46925416588783264,-0.19346606731414795,0.8318520784378052,0.44030946493148804,0.27500617504119873,0.0195486918091774
49.46780037879944,0.47322604060173035,-0.19750818610191345,0.8358049392700195,0.440286248922348,0.27497902512550354,0.01963503472507
49.46866178512573,0.4811478555202484,-0.20156976580619812,0.8359615802764893,0.4402761459350586,0.2750581204891205,0.019670942798256874
49.56936454772949,0.47718995809555054,-0.20546188950538635,0.8242114782333374,0.44026514887809753,0.2750775218009949,0.0197050292044878
49.67063617706299,0.47717398405075073,-0.1935790777206421,0.839789867401123,0.44025129079818726,0.2749340236186981,0.02003634162247181
49.771886348724365,0.477213978767395,-0.21343308687210083,0.8241795301437378,0.4402953088283539,0.2747732102870941,0.020077209919691086
49.87289834022522,0.4772069454193115,-0.20946595072746277,0.8280780911445618,0.4403582811355591,0.2746098041534424,0.020066609606146812
49.97431254386902,0.481149822473526,-0.20551836490631104,0.8281803727149963,0.44036129117012024,0.2743341028690338,0.02043129876255989
50.07550382614136,0.47718295454978943,-0.20149478316307068,0.8281100988388062,0.4403969645500183,0.27440741658210754,0.020424731075763702
50.176647901535034,0.4612923562526703,-0.16955044865608215,0.8473058938980103,0.4404038190841675,0.27428925037384033,0.02051829919219017
50.27767372131348,0.4811398386955261,-0.2054813802242279,0.8204151391983032,0.4403979778289795,0.27436187863349915,0.020544951781630516
50.37883996963501,0.4811478555202484,-0.20156976580619812,0.8359615802764893,0.44043248891830444,0.27415400743484497,0.02075423114001751
50.48053312301636,0.489045649766922,-0.1976601779460907,0.8361501693725586,0.44033512473106384,0.27430763840675354,0.021210381761193275
50.58163404464722,0.4771759510040283,-0.197527676820755,0.8320086598396301,0.44037044048309326,0.27398186922073364,0.021427521482110023
50.682581186294556,0.4811478555202484,-0.20156976580619812,0.8359615802764893,0.4404066801071167,0.27389034628868103,0.021433668211102486
50.78381681442261,0.4732380509376526,-0.2014937698841095,0.8357889652252197,0.4403764009475708,0.27391567826271057,0.02170540764927864
50.88502764701843,0.5761125087738037,-0.24600887298583984,0.7718525528907776,0.4986550807952881,0.25635582208633423,0.05073189362883568
50.986709117889404,0.3901291489601135,-0.10984096676111221,1.0051790475845337,0.6834970712661743,0.14447905123233795,0.11854761093854904
51.087610483169556,0.2513766586780548,0.0030673369765281677,1.0064891576766968,0.8225550651550293,0.0913909301161766,0.09626445919275284
51.18821048736572,-0.08734174072742462,-0.5663885474205017,0.7443943619728088,0.9239223599433899,0.22421692311763763,-0.06791426986455917
51.28899359703064,1.2500865459442139,-0.6447781324386597,1.146037220954895,0.9082688093185425,0.37244105339050293,-0.1713111251592636
51.39025282859802,-0.4078856408596039,-0.46011051535606384,0.8271198868751526,0.9535778760910034,0.23553605377674103,-0.18013204634189606
51.491843461990356,-0.4276011288166046,-0.44831517338752747,0.900505781173706,0.9439371228218079,0.22814984619617462,-0.22495122253894806
51.59295153617859,-0.4445057511329651,-0.20767667889595032,0.6176908016204834,0.8952739834785461,0.2837931215763092,-0.33594033122062683
51.69388961791992,-0.8234621286392212,-0.5692608952522278,0.30509114265441895,0.8348909616470337,0.30238768458366394,-0.4553355872631073
51.79479432106018,-1.3879088163375854,-0.9896200299263,0.15126465260982513,0.8088046908378601,0.24365440011024475,-0.5341660380363464
51.89616417884827,-0.7281195521354675,-0.6308633685112,0.49716973304748535,0.802046000957489,0.26427072286605835,-0.535031259059906
51.99871802330017,-0.7415102124214172,-0.2191595733165741,0.27336806058883667,0.7856948971748352,0.2935529351234436,-0.543407142162323
52.100401163101196,-0.22363033890724182,-0.2194119691848755,0.12938536703586578,0.7595718502998352,0.3359823524951935,-0.5567492842674255
52.20134615898132,-0.9082620739936829,-0.1245257630944252,-0.01720093935728073,0.7776139378547668,0.2893201410770416,-0.5571474432945251
52.30231761932373,-2.0181758403778076,-0.765432596206665,-0.4750438630580902,0.8037667274475098,0.1974239945411682,-0.5612326860427856
52.40382099151611,-0.7077321410179138,0.40992724895477295,0.3387943506240845,0.8369914293289185,0.1302414834499359,-0.5312700271606445
52.50619602203369,-0.5152899622917175,-0.6696078181266785,-0.16225463151931763,0.8001939654350281,0.28384965658187866,-0.5282701849937439
52.607401847839355,-0.391802042722702,-1.0208896398544312,-0.29299575090408325,0.733741044998169,0.35474082827568054,-0.579038679599762
52.70854902267456,-0.7249376773834229,-0.37580448389053345,0.49439746141433716,0.7745010256767273,0.3126284182071686,-0.5498683452606201
52.80974245071411,-0.37393152713775635,-0.3361484706401825,-0.16556903719902039,0.7027305364608765,0.5655027031898499,-0.43137291073799133
52.91077423095703,-0.27880793809890747,-0.5467061996459961,-0.49824944138526917,0.45174092054367065,0.863657534122467,-0.22154687345027924
53.01226854324341,-0.15969893336296082,-0.7702628374099731,-0.6596255898475647,0.39447057247161865,0.9052249193191528,-0.14732147753238678
53.113247871398926,-0.29793742299079895,-0.7853747606277466,-0.5578799247741699,0.47898146510124207,0.8512223362922668,-0.1965208798646927
53.213887453079224,-0.487152636051178,-0.8449627757072449,-0.22059352695941925,0.6295316219329834,0.7311939597129822,-0.24761350452899933
53.31458258628845,-0.37958934903144836,-0.8409960865974426,0.4068671464920044,0.8533874154090881,0.48110678791999817,-0.1998707503080368
53.41551947593689,-0.23441004753112793,-0.36125448346138,0.6449522376060486,0.972360372543335,0.1346547156572342,-0.15590828657150269
53.51678514480591,-0.511434018611908,0.008606839925050735,1.3664454221725464,0.9766502380371094,0.07066737115383148,-0.1536433845758438
53.61758232116699,-0.11658104509115219,-0.18595507740974426,0.42305442690849304,0.9292162656784058,0.30655720829963684,-0.18836529552936554
53.718133211135864,-0.9308944344520569,-0.36876991391181946,0.26473504304885864,0.827253520488739,0.3745230734348297,-0.4157647490501404
53.81907558441162,-2.2218546867370605,-0.7825914621353149,1.0268694162368774,0.8515371084213257,0.2385374903678894,-0.46612778306007385
53.92029309272766,-1.4908552169799805,-0.7635433673858643,0.5886666774749756,0.8267874717712402,0.24112097918987274,-0.5070613026618958
54.022040367126465,-0.4473417401313782,0.6028801798820496,0.31033074855804443,0.8086643218994141,0.22826509177684784,-0.541176438331604
54.12332773208618,0.018427560105919838,-0.5873136520385742,-0.09589573740959167,0.8317953944206238,0.1689850240945816,-0.5266713500022888
54.22446060180664,-0.5022342205047607,-0.44948017597198486,1.2948912382125854,0.8485870361328125,0.086205393075943,-0.5204358100891113
54.32557654380798,-0.8244941234588623,-0.1870872676372528,0.3998095393180847,0.8613676428794861,-0.054792582988739014,-0.5004364252090454
54.426849365234375,-0.6028146743774414,-0.2096797525882721,0.5171577334403992,0.8734368681907654,0.20330429077148438,-0.44234365224838257
54.52831482887268,-0.4782448709011078,-0.9236141443252563,0.37719544768333435,0.8426729440689087,0.4721906781196594,-0.2585851550102234
54.6293728351593,-0.3601248562335968,-0.5838609933853149,0.7733030915260315,0.932283341884613,0.3175121247768402,-0.1723751574754715
54.73032736778259,-0.1815483570098877,-0.7769908905029297,0.7997141480445862,0.9431551694869995,0.29994747042655945,-0.14146025478839874
54.83119750022888,-0.1980879306793213,-0.5377028584480286,0.8003289699554443,0.9459012150764465,0.2937469780445099,-0.13354872167110443
54.93200969696045,-0.2218703329563141,-0.5215139389038086,0.7959926128387451,0.9488897919654846,0.28582847118377686,-0.12802831828594208
55.03324794769287,-0.2099476456642151,-0.5376073122024536,0.8039526343345642,0.9521458745002747,0.2751186192035675,-0.12447716295719147
55.134876012802124,0.03876106068491936,-0.40039435029029846,0.786653995513916,0.9595763087272644,0.24716421961784363,-0.11756444722414017
55.23630714416504,-0.15084314346313477,-0.4309546947479248,0.8872137665748596,0.9702214598655701,0.2020452916622162,-0.11245159804821014
55.337482213974,-0.16697373986244202,-0.3192983865737915,0.9067295789718628,0.9776221513748169,0.16472499072551727,-0.10954608023166656
55.43861246109009,-0.16291484236717224,-0.34730958938598633,0.922234296798706,0.9803848266601562,0.146925151348114,-0.10727309435606003
55.539968490600586,-0.19870394468307495,-0.26742205023765564,0.9567210078239441,0.9844091534614563,0.1233912855386734,-0.10543004423379898
55.640958070755005,-0.21459954977035522,-0.23545926809310913,0.972034215927124,0.9845292568206787,0.12185672670602798,-0.10608430951833725
55.7419536113739,-0.17903143167495728,-0.24358749389648438,0.9339529275894165,0.9847241640090942,0.12076006829738617,-0.10546902567148209
55.842886447906494,-0.19480502605438232,-0.2554292678833008,0.9413248896598816,0.9845995903015137,0.12162923812866211,-0.10560720413923264
55.94388008117676,-0.1908501386642456,-0.2554672658443451,0.9414111971855164,0.9845699071884155,0.12183018028736115,-0.10563965141773224
55.94601321220398,-0.1869262456893921,-0.24356696009635925,0.9454280734062195,0.984544575214386,0.12198963016271591,-0.10568347573280334
56.04683780670166,-0.21061262488365173,-0.2592628598213196,0.9409636855125427,0.9845269322395325,0.12174151837825775,-0.10618078708648682
56.14807486534119,-0.18295735120773315,-0.2515391707420349,0.9377171993255615,0.9844961166381836,0.12206262350082397,-0.10606582462787628
56.2491090297699,-0.18294033408164978,-0.2555432617664337,0.9415837526321411,0.9844617247581482,0.12208006531000137,-0.10638343542814255
56.3501660823822,-0.18296432495117188,-0.24757203459739685,0.9416157603263855,0.9844853281974792,0.12206974625587463,-0.10615644603967667
56.45173501968384,-0.19085314869880676,-0.25939735770225525,0.9297473430633545,0.9844868779182434,0.12215478718280792,-0.1060575544834137
56.55274701118469,-0.18688523769378662,-0.2555422782897949,0.9492626786231995,0.9844834804534912,0.12194082140922546,-0.10636140406131744
56.65378785133362,-0.19482901692390442,-0.24745804071426392,0.941356897354126,0.9845317006111145,0.12193544209003448,-0.10588276386260986
56.754857540130615,-0.19479504227638245,-0.2554662823677063,0.9490900635719299,0.9845455884933472,0.12181130051612854,-0.10590842366218567
56.85566830635071,-0.19085514545440674,-0.2554487884044647,0.9375286102294922,0.9845408201217651,0.12178036570549011,-0.1059902012348175
56.95689606666565,-0.18691924214363098,-0.24753403663635254,0.9415294528007507,0.9845230579376221,0.1217542439699173,-0.10619799047708511
57.05809473991394,-0.1948150396347046,-0.25539228320121765,0.9335597157478333,0.9844823479652405,0.12198998034000397,-0.10628656297922134
57.15929985046387,-0.1908741295337677,-0.24749603867530823,0.9414432048797607,0.9844939112663269,0.12194445729255676,-0.10622994601726532
57.26022124290466,-0.1948220431804657,-0.251425176858902,0.9374582767486572,0.9845330715179443,0.12184005975723267,-0.10597893595695496
57.36132311820984,-0.19481703639030457,-0.25144365429878235,0.9413408637046814,0.9845474362373352,0.12187571078538895,-0.10579878836870193
57.462536334991455,-0.18692225217819214,-0.2514641582965851,0.9298656582832336,0.984505295753479,0.12216546386480331,-0.10584093630313873
57.56371212005615,-0.19086715579032898,-0.2514631748199463,0.937544584274292,0.984511137008667,0.12210719287395477,-0.10585279017686844
57.664658308029175,-0.19086214900016785,-0.25148165225982666,0.9414271712303162,0.9844586253166199,0.12229819595813751,-0.10611668229103088
57.76569151878357,-0.19086715579032898,-0.2514631748199463,0.937544584274292,0.9844604134559631,0.12237084656953812,-0.10600682348012924
57.86667060852051,-0.19087213277816772,-0.25144466757774353,0.9336619973182678,0.9844706058502197,0.1222582459449768,-0.10605449229478836
57.96816945075989,-0.18690723180770874,-0.25151965022087097,0.9415134787559509,0.9845179319381714,0.12199057638645172,-0.10593369603157043
58.06932353973389,-0.1868952512741089,-0.2555052638053894,0.9414975047111511,0.984536349773407,0.12193839251995087,-0.10582294315099716
58.17034387588501,-0.18295034766197205,-0.2555062770843506,0.9338185787200928,0.9845406413078308,0.12190964818000793,-0.1058148592710495
58.27141451835632,-0.18691924214363098,-0.24753403663635254,0.9415294528007507,0.9845574498176575,0.12186039239168167,-0.10570874810218811
58.37252855300903,-0.1868952512741089,-0.2555052638053894,0.9414975047111511,0.9844954013824463,0.12204521149396896,-0.10609269142150879
58.473979234695435,-0.19086214900016785,-0.25148165225982666,0.9414271712303162,0.9844563007354736,0.12239844352006912,-0.10601898282766342
58.574949741363525,-0.19087213277816772,-0.25144466757774353,0.9336619973182678,0.9845322370529175,0.12208099663257599,-0.10566655546426773
58.675926208496094,-0.19874092936515808,-0.2633439898490906,0.9373239874839783,0.9845110774040222,0.12214761972427368,-0.10579568892717361
58.77681493759155,-0.186917245388031,-0.25148266553878784,0.9337483048439026,0.9845283627510071,0.12202015519142151,-0.10578207671642303
58.87752938270569,-0.19875094294548035,-0.26330697536468506,0.9295587539672852,0.9845355749130249,0.12211404740810394,-0.10557566583156586
58.978177070617676,-0.19087213277816772,-0.25144466757774353,0.9336619973182678,0.9845289587974548,0.12188627570867538,-0.1059609055519104
59.079288482666016,-0.18690225481987,-0.25153815746307373,0.9453960657119751,0.9845837950706482,0.12166815996170044,-0.10569149255752563
59.18030071258545,-0.19481003284454346,-0.2554107904434204,0.9374423027038574,0.9845667481422424,0.1217370480298996,-0.10576502233743668
59.28130006790161,-0.19086214900016785,-0.25148165225982666,0.9414271712303162,0.9845544695854187,0.12177877128124237,-0.10582797974348068
59.38241958618164,-0.18691223859786987,-0.2515011727809906,0.9376308917999268,0.9845479726791382,0.12167271971702576,-0.10602445900440216
59.48391318321228,-0.1868952512741089,-0.2555052638053894,0.9414975047111511,0.9845386147499084,0.12171027809381485,-0.10604976862668991
59.58508849143982,-0.18690025806427002,-0.25548678636550903,0.937614917755127,0.9845648407936096,0.12164632976055145,-0.10588201135396957
59.68580770492554,-0.19086414575576782,-0.24753305315971375,0.9492083787918091,0.9846433401107788,0.12107785791158676,-0.10589031875133514
59.78663444519043,-0.19878894090652466,-0.24740156531333923,0.937388002872467,0.9846718907356262,0.12079522013664246,-0.10596367716789246
59.88758087158203,-0.19088414311408997,-0.2474590539932251,0.9336780309677124,0.9847040176391602,0.12072405219078064,-0.10573877394199371
59.98898100852966,-0.1908571422100067,-0.2515001595020294,0.9453097581863403,0.9846841096878052,0.1209356039762497,-0.10565447062253952
60.089935302734375,-0.19086715579032898,-0.2514631748199463,0.937544584274292,0.9846882224082947,0.1208304911851883,-0.10574869066476822
60.19088411331177,-0.19087913632392883,-0.24747756123542786,0.9375606179237366,0.9846711754798889,0.12085489928722382,-0.10588393360376358
60.29189109802246,-0.19086715579032898,-0.2514631748199463,0.937544584274292,0.9846657514572144,0.12094675004482269,-0.10582709312438965
60.39298057556152,-0.18690025806427002,-0.25548678636550903,0.937614917755127,0.9846591353416443,0.12102589011192322,-0.10579577088356018
60.49456310272217,-0.18690225481987,-0.25153815746307373,0.9453960657119751,0.9846810698509216,0.12086555361747742,-0.10578323900699615
60.5955855846405,-0.19086715579032898,-0.2514631748199463,0.937544584274292,0.9846997857093811,0.12076710164546967,-0.10573150962591171
60.696645736694336,-0.19086915254592896,-0.247514545917511,0.9453257918357849,0.9846645593643188,0.12094276398420334,-0.1058531254529953
60.79761290550232,-0.18692922592163086,-0.2474970519542694,0.9337642788887024,0.9846702814102173,0.120872363448143,-0.10587994754314423
60.898690938949585,-0.25881242752075195,-0.04718156158924103,0.8592414855957031,0.9883973598480225,0.10602303594350815,-0.10383765399456024
61.000229358673096,-0.24632376432418823,-0.2348407804965973,0.9053395986557007,0.9830204248428345,0.1188192367553711,-0.11557275801897049
61.10105061531067,-0.38788315653800964,-0.5360268354415894,0.8272473812103271,0.9490329027175903,0.26750415563583374,-0.10947231203317642
61.2019898891449,-0.29280155897140503,-0.7030760645866394,0.5646297931671143,0.9042870402336121,0.4044707417488098,-0.0793018713593483
61.303056716918945,-0.21352854371070862,-0.763601541519165,0.5622332096099854,0.8785195350646973,0.46178901195526123,-0.0669899731874466
61.40411329269409,-0.20555773377418518,-0.7954328656196594,0.5350995659828186,0.8720381259918213,0.475003182888031,-0.0632719025015831
61.50545930862427,-0.21345254778862,-0.7954123616218567,0.5465747714042664,0.8722084164619446,0.4745214581489563,-0.06366190314292908
61.60642957687378,-0.24119684100151062,-0.7949243187904358,0.499379426240921,0.8645077347755432,0.4863812327384949,-0.06625459343194962
61.707454681396484,-0.18563923239707947,-0.9025680422782898,0.3953254520893097,0.834360659122467,0.5420021414756775,-0.0464981310069561
61.80861854553223,-0.17385554313659668,-0.8708527088165283,0.40736013650894165,0.8351259231567383,0.5407195687294006,-0.04688161984086037
61.909820318222046,-0.18177735805511475,-0.8667911291122437,0.4072035551071167,0.8356847763061523,0.5397614240646362,-0.04727620258927345
62.01166772842407,-0.16990062594413757,-0.870890736579895,0.4074464440345764,0.8358592391014099,0.5394595861434937,-0.04740813374519348
62.112327337265015,-0.1777934432029724,-0.8748188614845276,0.41114044189453125,0.8361164331436157,0.539084255695343,-0.047250907868146896
62.21293926239014,-0.17385554313659668,-0.8708527088165283,0.40736013650894165,0.8361753821372986,0.5389723777770996,-0.047297876328229904
62.31346774101257,-0.17383155226707458,-0.8788239359855652,0.40732815861701965,0.8362076282501221,0.538902759552002,-0.047388769686222076
62.41438937187195,-0.16990062594413757,-0.870890736579895,0.4074464440345764,0.8362895250320435,0.5387951731681824,-0.04733020439743996
62.5157790184021,-0.17385053634643555,-0.8708712458610535,0.4112427234649658,0.8362825512886047,0.5387714505195618,-0.04748570919036865
62.61692667007446,-0.16989362239837646,-0.8748578429222107,0.40354785323143005,0.8362044095993042,0.5388765931129456,-0.04765923693776131
62.71802091598511,-0.16991063952445984,-0.8708537817001343,0.3996812403202057,0.8361832499504089,0.5389088988304138,-0.047647327184677124
62.819082736968994,-0.17779144644737244,-0.8787674903869629,0.4033592641353607,0.8361339569091797,0.5389810800552368,-0.04765373095870018
62.920188188552856,-0.16991063952445984,-0.8708537817001343,0.3996812403202057,0.836035430431366,0.5391433835029602,-0.04759662225842476
63.0217080116272,-0.17384353280067444,-0.8748382925987244,0.40734416246414185,0.8360053300857544,0.5391934514045715,-0.047613564878702164
63.122573375701904,-0.1778034269809723,-0.8747818470001221,0.4033752679824829,0.8359833359718323,0.5392137765884399,-0.047711081802845
63.22380352020264,-0.1738535463809967,-0.8748013377189636,0.3995789587497711,0.8360005617141724,0.5391914248466492,-0.047707561403512955
63.324835777282715,-0.17386552691459656,-0.8708157539367676,0.3995949327945709,0.8359740376472473,0.5392293334007263,-0.04776553064584732
63.42595100402832,-0.16989362239837646,-0.8748578429222107,0.40354785323143005,0.8358858227729797,0.5393925905227661,-0.04762326925992966
63.52730321884155,-0.17386052012443542,-0.870834231376648,0.4034775495529175,0.8358981609344482,0.5393681526184082,-0.047590311616659164
63.62839102745056,-0.1778034269809723,-0.8747818470001221,0.4033752679824829,0.835985541343689,0.5392419695854187,-0.04754393920302391
63.72953939437866,-0.17384853959083557,-0.874819815158844,0.4034615755081177,0.835870087146759,0.539428174495697,-0.047559741884469986
63.83065891265869,-0.16990062594413757,-0.870890736579895,0.4074464440345764,0.8358851671218872,0.5393929481506348,-0.04765131324529648
63.93172097206116,-0.17386755347251892,-0.8668671250343323,0.40737614035606384,0.8359057307243347,0.5393690466880798,-0.04761263728141785
64.03281617164612,-0.17382952570915222,-0.8827725648880005,0.39954695105552673,0.8359183073043823,0.5393409132957458,-0.047639720141887665
64.13350486755371,-0.16992264986038208,-0.8668681979179382,0.3996972441673279,0.8359104990959167,0.5393258333206177,-0.047724220901727676
64.235032081604,-0.18178632855415344,-0.8588753938674927,0.418883353471756,0.837256133556366,0.5365728735923767,-0.04992328956723213
64.33590388298035,-0.17780745029449463,-0.8668846487998962,0.41893765330314636,0.8418580889701843,0.5289766788482666,-0.051514267921447754
64.43682384490967,-0.20159384608268738,-0.8230925798416138,0.47683486342430115,0.853837251663208,0.5084200501441956,-0.055272895842790604
64.53820371627808,-0.2290661334991455,-0.8275521397590637,0.6315187811851501,0.8824120759963989,0.45360225439071655,-0.0659244954586029
64.63897943496704,-0.3437102437019348,-0.7044505476951599,0.9556504487991333,0.9108856916427612,0.388724684715271,-0.08064057677984238
64.73955130577087,-0.23371601104736328,-0.5293526649475098,0.7918190956115723,0.94869065284729,0.28262412548065186,-0.09304945170879364
64.84044361114502,-0.24560075998306274,-0.470046728849411,0.9160434007644653,0.9595385193824768,0.24690045416355133,-0.09403673559427261
64.94157862663269,-0.16302284598350525,-0.33114519715309143,0.8757070899009705,0.9695939421653748,0.19736574590206146,-0.0999041274189949
65.04303240776062,-0.25407055020332336,-0.29054465889930725,0.9010604023933411,0.9750259518623352,0.16414353251457214,-0.10467598587274551
65.14413261413574,-0.2421858310699463,-0.29073265194892883,0.916849672794342,0.9765462279319763,0.15587885677814484,-0.10512658208608627
65.24519658088684,-0.23437902331352234,-0.25495681166648865,0.9210488796234131,0.9781669974327087,0.14433108270168304,-0.10614614933729172
65.34622359275818,-0.25809842348098755,-0.2547657787799835,0.9282962679862976,0.9791693091392517,0.13337959349155426,-0.10733000189065933
65.4473237991333,-0.23834297060966492,-0.24700304865837097,0.93264240026474,0.9790248870849609,0.13450980186462402,-0.10726633667945862
65.54867553710938,-0.23441702127456665,-0.23905137181282043,0.9288780689239502,0.9789759516716003,0.135004922747612,-0.1071871817111969
65.64961004257202,-0.23835495114326477,-0.24301746487617493,0.9326584339141846,0.978916347026825,0.13548851013183594,-0.10718771815299988
65.75048851966858,-0.2343980371952057,-0.24700406193733215,0.9249634742736816,0.9788713455200195,0.13566754758358002,-0.10738256573677063
65.85133528709412,-0.238366961479187,-0.2390318512916565,0.9326744079589844,0.9788432121276855,0.13571985065937042,-0.10755878686904907
65.95225691795349,-0.24231481552124023,-0.24296095967292786,0.9286894798278809,0.9788230061531067,0.13590165972709656,-0.10753627121448517
65.9533166885376,-0.23441001772880554,-0.2430184781551361,0.9249794483184814,0.9788318276405334,0.13585489988327026,-0.1075030118227005
66.05418705940247,-0.24231982231140137,-0.2429424524307251,0.9248068928718567,0.9787855744361877,0.13593752682209015,-0.10779247432947159
66.15500164031982,-0.234419047832489,-0.2351028025150299,0.9366592764854431,0.978798508644104,0.1359202265739441,-0.10771264880895615
66.25616335868835,-0.23835495114326477,-0.24301746487617493,0.9326584339141846,0.9788181781768799,0.13607046008110046,-0.10740341991186142
66.35737657546997,-0.25803646445274353,-0.2589363753795624,0.9671062231063843,0.978996753692627,0.13422727584838867,-0.10712964087724686
66.45877933502197,-0.2383459508419037,-0.2509331703186035,0.9209786057472229,0.97661292552948,0.14533525705337524,-0.1063152328133583
66.55987644195557,-0.23067215085029602,-0.1791943609714508,0.9059087634086609,0.9762880802154541,0.14645147323608398,-0.10677062720060349
66.66084384918213,-0.2382979393005371,-0.26687556505203247,0.9209145903587341,0.9755960702896118,0.1490606963634491,-0.10705485194921494
66.76189136505127,-0.24615073204040527,-0.290657639503479,0.9089981913566589,0.9757406115531921,0.14867328107357025,-0.10747501999139786
66.8630063533783,-0.21052464842796326,-0.2950592637062073,0.9252892732620239,0.9774699211120605,0.14099864661693573,-0.10810528695583344
66.96489381790161,-0.24628877639770508,-0.23497027158737183,0.9325178265571594,0.9784895777702332,0.1350918561220169,-0.10893165320158005
67.06579089164734,-0.2541055679321289,-0.27070918679237366,0.9205533862113953,0.979488730430603,0.13174159824848175,-0.10746244341135025
67.1668291091919,-0.2067057490348816,-0.24335846304893494,0.9411140084266663,0.9791712164878845,0.133909672498703,-0.10821639001369476
67.26857495307922,-0.23453903198242188,-0.19524675607681274,0.936819314956665,0.981222927570343,0.11970773339271545,-0.10856270790100098
67.36978387832642,-0.22658324241638184,-0.2073165774345398,0.944709062576294,0.9812031388282776,0.1196671798825264,-0.10873820632696152
67.4713306427002,-0.2344980239868164,-0.2072220742702484,0.9406538605690002,0.9812131524085999,0.11939001828432083,-0.10893542319536209
67.57248783111572,-0.23842895030975342,-0.2151552438735962,0.9405356049537659,0.9812048673629761,0.11921744048595428,-0.10912754386663437
67.67378830909729,-0.23844096064567566,-0.21116966009140015,0.9405515789985657,0.981222927570343,0.11912079900503159,-0.10906978696584702
67.77489352226257,-0.23450303077697754,-0.20720359683036804,0.9367712736129761,0.9812145233154297,0.118971087038517,-0.1092958152294159
67.87618446350098,-0.24238085746765137,-0.2111871838569641,0.9521130919456482,0.9812015891075134,0.11911068111658096,-0.10927789658308029
67.97766923904419,-0.23847696185112,-0.19921287894248962,0.9405995607376099,0.9811986088752747,0.11902972310781479,-0.1094140037894249
68.07877850532532,-0.24239084124565125,-0.2111501693725586,0.9443478584289551,0.981214702129364,0.11890935897827148,-0.10940569639205933
68.1800045967102,-0.23843595385551453,-0.2111881673336029,0.9444341659545898,0.9812354445457458,0.11876283586025238,-0.10934282839298248
68.28097414970398,-0.2424028217792511,-0.20716455578804016,0.9443638920783997,0.9812315702438354,0.1187380701303482,-0.10939254611730576
68.38188457489014,-0.23448604345321655,-0.21120768785476685,0.9406378865242004,0.9812141060829163,0.11881062388420105,-0.10946977883577347
68.48322582244873,-0.2384529411792755,-0.2071840465068817,0.9405675530433655,0.9812048673629761,0.11904946714639664,-0.1093389093875885
68.58426785469055,-0.24239084124565125,-0.2111501693725586,0.9443478584289551,0.9812120795249939,0.11897274106740952,-0.10934854298830032
68.68522024154663,-0.2384529411792755,-0.2071840465068817,0.9405675530433655,0.9812222123146057,0.11887690424919128,-0.10935696214437485
68.78616762161255,-0.2384699583053589,-0.2031799554824829,0.9367009997367859,0.9812172651290894,0.11882457137107849,-0.10944228619337082
68.88741993904114,-0.23844096064567566,-0.21116966009140015,0.9405515789985657,0.9812041521072388,0.11875247210264206,-0.10961311310529709
68.98901581764221,-0.2424008548259735,-0.21111318469047546,0.9365826845169067,0.9812262058258057,0.1187257394194603,-0.10944623500108719
69.09014892578125,-0.23844295740127563,-0.20722106099128723,0.9483327269554138,0.9812338352203369,0.11880823969841003,-0.10932059586048126
69.191232919693,-0.24238383769989014,-0.21511724591255188,0.9404492974281311,0.9812331795692444,0.11873260885477066,-0.10940006375312805
69.2922797203064,-0.24240782856941223,-0.2071460485458374,0.9404813051223755,0.9812076687812805,0.11890596151351929,-0.1094508096575737
69.39330649375916,-0.23451003432273865,-0.20323646068572998,0.9406698942184448,0.9811951518058777,0.11898777633905411,-0.10948967933654785
69.49448132514954,-0.2384459674358368,-0.21115118265151978,0.9366689920425415,0.9812296032905579,0.11890906095504761,-0.10926885157823563
69.59505772590637,-0.23449105024337769,-0.21118921041488647,0.9367552995681763,0.981218159198761,0.11897403001785278,-0.10930833220481873
69.6959240436554,-0.23450803756713867,-0.20718508958816528,0.9328886866569519,0.9812005162239075,0.1190003827214241,-0.1094316765666008
69.79694271087646,-0.23449605703353882,-0.21117070317268372,0.9328727126121521,0.9812168478965759,0.11887871474027634,-0.10941106081008911
69.89789390563965,-0.23844096064567566,-0.21116966009140015,0.9405515789985657,0.9812306761741638,0.11883115023374557,-0.10933716595172882
69.99897527694702,-0.23450502753257751,-0.20325496792793274,0.944552481174469,0.9812276363372803,0.11876209080219269,-0.10943242907524109
70.09962391853333,-0.23448604345321655,-0.21120768785476685,0.9406378865242004,0.9812063574790955,0.11872357130050659,-0.10963858664035797
70.20047402381897,-0.2384529411792755,-0.2071840465068817,0.9405675530433655,0.9812095165252686,0.11886683106422424,-0.10948488116264343
70.30144619941711,-0.2305431365966797,-0.20726007223129272,0.940740168094635,0.9812067151069641,0.11886170506477356,-0.10951942205429077
70.40258002281189,-0.23844096064567566,-0.21116966009140015,0.9405515789985657,0.981194794178009,0.11878291517496109,-0.10968277603387833
70.50432634353638,-0.2384699583053589,-0.2031799554824829,0.9367009997367859,0.9812489748001099,0.11846662312746048,-0.10951156914234161
70.60549998283386,-0.24241283535957336,-0.20712757110595703,0.9365987181663513,0.9812599420547485,0.11856269836425781,-0.10933246463537216
70.70626926422119,-0.23846495151519775,-0.20319846272468567,0.9405835866928101,0.9812527298927307,0.11851822584867477,-0.109432652592659
70.80677604675293,-0.23844096064567566,-0.21116966009140015,0.9405515789985657,0.9812275767326355,0.11865604668855667,-0.10951032489538193
70.90725350379944,-0.2384529411792755,-0.2071840465068817,0.9405675530433655,0.9812317490577698,0.11864888668060303,-0.10948186367750168
71.00808596611023,-0.2305431365966797,-0.20726007223129272,0.940740168094635,0.9812036752700806,0.1188909113407135,-0.10952175408601761
71.10937261581421,-0.2503276467323303,-0.20703306794166565,0.9325435161590576,0.9811797142028809,0.11903032660484314,-0.10958978533744812
71.21041059494019,-0.23845794796943665,-0.20716556906700134,0.9366849660873413,0.9811958074569702,0.11897294223308563,-0.10949193686246872
71.31138396263123,-0.24241983890533447,-0.20316046476364136,0.9404972791671753,0.9811875820159912,0.1188950166106224,-0.10962259024381638
71.41230702400208,-0.2463797628879547,-0.2031039595603943,0.9365283846855164,0.9811697006225586,0.11897414177656174,-0.10969852656126022
71.51391696929932,-0.25029364228248596,-0.21504124999046326,0.9402766823768616,0.9812010526657104,0.11864475905895233,-0.1097283661365509
71.61506080627441,-0.16719073057174683,-0.23573029041290283,0.9342437982559204,0.9812430739402771,0.118595652282238,-0.10945950448513031
71.7164032459259,-0.23447605967521667,-0.21124470233917236,0.9484030604362488,0.9811972975730896,0.11875434219837189,-0.1097460389137268
71.81756401062012,-0.24242985248565674,-0.20312345027923584,0.932732105255127,0.9811901450157166,0.11857081949710846,-0.10997995734214783
71.91887211799622,-0.23846295475959778,-0.20714706182479858,0.9328023791313171,0.9811660647392273,0.11864876747131348,-0.11010628193616867
72.02034616470337,-0.2424028217792511,-0.20716455578804016,0.9443638920783997,0.9811504483222961,0.11874009668827057,-0.11014854907989502
72.12140107154846,-0.2384459674358368,-0.21115118265151978,0.9366689920425415,0.9811554551124573,0.11870358884334564,-0.1101359948515892
72.2224669456482,-0.2345200479030609,-0.20319944620132446,0.9329047203063965,0.9811751246452332,0.11844832450151443,-0.11019910871982574
72.3237030506134,-0.23846295475959778,-0.20714706182479858,0.9328023791313171,0.9811812043190002,0.11866259574890137,-0.1099652349948883
72.42453861236572,-0.23845994472503662,-0.20321696996688843,0.9444661736488342,0.9811868071556091,0.11848962306976318,-0.11007247865200043
72.48155379295349,-0.24238383769989014,-0.21511724591255188,0.9404492974281311,0.9811714887619019,0.11863444745540619,-0.1100689172744751
72.58207273483276,-0.23844096064567566,-0.21116966009140015,0.9405515789985657,0.9811640977859497,0.11875136941671371,-0.11002000421285629
72.68264365196228,-0.2424028217792511,-0.20716455578804016,0.9443638920783997,0.9811825156211853,0.11860877275466919,-0.11000693589448929
72.78318977355957,-0.24240782856941223,-0.2071460485458374,0.9404813051223755,0.9811922311782837,0.11850259453058243,-0.1100136786699295
72.88368821144104,-0.23845097422599792,-0.21113267540931702,0.9327864050865173,0.9812020659446716,0.11853465437889099,-0.10991691052913666
72.98439598083496,-0.2424008548259735,-0.21111318469047546,0.9365826845169067,0.9811732769012451,0.11875315010547638,-0.1099623590707779
73.0849962234497,-0.23843395709991455,-0.21513676643371582,0.9366530179977417,0.9811899065971375,0.11865130066871643,-0.10990931838750839
73.18569302558899,-0.2384529411792755,-0.2071840465068817,0.9405675530433655,0.9811873435974121,0.11860307306051254,-0.10996436327695847
73.28664779663086,-0.2384529411792755,-0.2071840465068817,0.9405675530433655,0.9811457395553589,0.11879842728376389,-0.11013282090425491
73.38781356811523,-0.23847696185112,-0.19921287894248962,0.9405995607376099,0.9811592102050781,0.11871155351400375,-0.11009975522756577
73.4894049167633,-0.23451504111289978,-0.20321795344352722,0.9367873072624207,0.9811847805976868,0.11853344738483429,-0.1100563183426857
73.5906069278717,-0.2424248456954956,-0.2031419575214386,0.9366146922111511,0.981218695640564,0.11835208535194397,-0.10994721949100494
73.691734790802,-0.24636274576187134,-0.2071080505847931,0.9403949975967407,0.9812007546424866,0.11839348077774048,-0.11004700511693954
73.792804479599,-0.23845496773719788,-0.2032354474067688,0.9483487606048584,0.9811931252479553,0.11834109574556351,-0.11015867441892624
73.8938581943512,-0.23846495151519775,-0.20319846272468567,0.9405835866928101,0.9811963438987732,0.11825711280107498,-0.11020908504724503
73.99534964561462,-0.23843595385551453,-0.2111881673336029,0.9444341659545898,0.9811981916427612,0.1183042824268341,-0.11017109453678131
74.09638953208923,-0.24240782856941223,-0.2071460485458374,0.9404813051223755,0.9812015891075134,0.1184157058596611,-0.11004572361707687
74.19741773605347,-0.23844295740127563,-0.20722106099128723,0.9483327269554138,0.9812215566635132,0.11836066097021103,-0.10993237793445587
74.29839754104614,-0.23449301719665527,-0.20724058151245117,0.9445364475250244,0.981181800365448,0.11872709542512894,-0.10993116348981857
74.39930438995361,-0.23846295475959778,-0.20714706182479858,0.9328023791313171,0.9812142848968506,0.11837358772754669,-0.1099771186709404
74.50080275535583,-0.25032463669776917,-0.2031029760837555,0.9442072510719299,0.9812130928039551,0.11836479604244232,-0.11000174283981323
74.60202193260193,-0.23055514693260193,-0.2032744586467743,0.9407562017440796,0.981231689453125,0.11819760501384735,-0.11000832915306091
74.7032241821289,-0.24241483211517334,-0.20317897200584412,0.9443798661231995,0.9812263250350952,0.11824212223291397,-0.11001928895711899
74.80438232421875,-0.23055514693260193,-0.2032744586467743,0.9407562017440796,0.9812203645706177,0.11826655268669128,-0.11005526781082153
74.90546298027039,-0.2384699583053589,-0.2031799554824829,0.9367009997367859,0.9812127947807312,0.11834918707609177,-0.11005399376153946
75.006915807724,-0.2424318492412567,-0.1991748809814453,0.9405132532119751,0.9812240600585938,0.11831831187009811,-0.1099923774600029
75.10826659202576,-0.23847496509552002,-0.20316144824028015,0.9328184127807617,0.9812204241752625,0.1184062510728836,-0.10994213819503784
75.20942854881287,-0.23844295740127563,-0.20722106099128723,0.9483327269554138,0.9811732172966003,0.11858028918504715,-0.1101827323436737
75.31061673164368,-0.23845097422599792,-0.21113267540931702,0.9327864050865173,0.9811397790908813,0.11880525201559067,-0.11025643348693848
75.41162610054016,-0.2424248456954956,-0.2031419575214386,0.9366146922111511,0.9811633825302124,0.11865843087434769,-0.11019064486026764
75.51299738883972,-0.23449605703353882,-0.21117070317268372,0.9328727126121521,0.9811748266220093,0.11855509132146835,-0.11018840223550797
75.61393237113953,-0.23449105024337769,-0.21118921041488647,0.9367552995681763,0.9811694025993347,0.11857104301452637,-0.11021794378757477
75.71487092971802,-0.2423858642578125,-0.21116867661476135,0.9482304453849792,0.981203019618988,0.11842378228902817,-0.11007443070411682
75.81554341316223,-0.23450303077697754,-0.20720359683036804,0.9367712736129761,0.981212854385376,0.11838077008724213,-0.1100282073020935
75.91620516777039,-0.2384529411792755,-0.2071840465068817,0.9405675530433655,0.981181800365448,0.11851631850004196,-0.11016593128442764
76.01767587661743,-0.23845794796943665,-0.20716556906700134,0.9366849660873413,0.9811760187149048,0.1184697151184082,-0.11024149507284164
76.11847019195557,-0.2423858642578125,-0.21116867661476135,0.9482304453849792,0.9811907410621643,0.1184888556599617,-0.11011006683111191
76.21931624412537,-0.24238383769989014,-0.21511724591255188,0.9404492974281311,0.9811680316925049,0.11867589503526688,-0.11012592911720276
76.32032346725464,-0.24241283535957336,-0.20712757110595703,0.9365987181663513,0.9811589121818542,0.11865069717168808,-0.11022527515888214
76.42129039764404,-0.23449105024337769,-0.21118921041488647,0.9367552995681763,0.9812037348747253,0.11847885698080063,-0.11002731323242188
76.52262735366821,-0.23844793438911438,-0.20720255374908447,0.9444501399993896,0.9812278747558594,0.11818671971559525,-0.11008147150278091
76.62332916259766,-0.2384459674358368,-0.21115118265151978,0.9366689920425415,0.9812440872192383,0.11822281032800674,-0.10990983247756958
76.72411751747131,-0.24241283535957336,-0.20712757110595703,0.9365987181663513,0.9811933636665344,0.11838452517986298,-0.11018519848585129
76.8251006603241,-0.23843896389007568,-0.21511825919151306,0.9327704310417175,0.9811745285987854,0.11858852952718735,-0.11016571521759033
76.92608284950256,-0.24241283535957336,-0.20712757110595703,0.9365987181663513,0.9811827540397644,0.11853833496570587,-0.11013597995042801
77.02738499641418,-0.23845994472503662,-0.20321696996688843,0.9444661736488342,0.9811638593673706,0.11859772354364395,-0.11024303734302521
77.12831974029541,-0.24241283535957336,-0.20712757110595703,0.9365987181663513,0.9811519384384155,0.11863848567008972,-0.11029814928770065
77.22947573661804,-0.23055315017700195,-0.2072230875492096,0.9329749941825867,0.9811818599700928,0.11855269223451614,-0.1101432517170906
77.33067536354065,-0.24241283535957336,-0.20712757110595703,0.9365987181663513,0.9812094569206238,0.11836075782775879,-0.11008086055517197
77.43202781677246,-0.2384529411792755,-0.2071840465068817,0.9405675530433655,0.9811745285987854,0.11850107461214066,-0.11023910343647003
77.53369760513306,-0.2384459674358368,-0.21115118265151978,0.9366689920425415,0.9811700582504272,0.11860470473766327,-0.11017422378063202
77.63492918014526,-0.23843595385551453,-0.2111881673336029,0.9444341659545898,0.9811762571334839,0.11859339475631714,-0.1101270467042923
77.7361307144165,-0.24636274576187134,-0.2071080505847931,0.9403949975967407,0.9811700582504272,0.11873462051153183,-0.11005307734012604
77.83726525306702,-0.23844793438911438,-0.20720255374908447,0.9444501399993896,0.981166660785675,0.1185942143201828,-0.11019926518201828
77.93841600418091,-0.24636274576187134,-0.2071080505847931,0.9403949975967407,0.9811642169952393,0.11854412406682968,-0.11025878041982651
78.03985095024109,-0.23849895596504211,-0.19519028067588806,0.9328504204750061,0.9811863899230957,0.1184801310300827,-0.1101301833987236
78.14093899726868,-0.2384699583053589,-0.2031799554824829,0.9367009997367859,0.9812037348747253,0.11848656833171844,-0.10999967902898788
78.24208950996399,-0.23845794796943665,-0.20716556906700134,0.9366849660873413,0.9811692833900452,0.11858063191175461,-0.11019191890954971
78.34319734573364,-0.23844793438911438,-0.20720255374908447,0.9444501399993896,0.9811864495277405,0.11856348067522049,-0.11004314571619034
78.44526076316833,-0.24241283535957336,-0.20712757110595703,0.9365987181663513,0.9811769723892212,0.11855378746986389,-0.11012014001607895
78.54661154747009,-0.24239584803581238,-0.21113166213035583,0.9404652714729309,0.9811317920684814,0.11878813803195953,-0.11029087007045746
78.64802289009094,-0.23843595385551453,-0.2111881673336029,0.9444341659545898,0.9811500906944275,0.1185302734375,-0.11037515848875046
78.74901938438416,-0.2384529411792755,-0.2071840465068817,0.9405675530433655,0.9811553955078125,0.11856146156787872,-0.11030813306570053
78.85000658035278,-0.24240782856941223,-0.2071460485458374,0.9404813051223755,0.9811552166938782,0.11858316510915756,-0.11028073728084564
78.9511570930481,-0.2424008548259735,-0.21111318469047546,0.9365826845169067,0.9811367988586426,0.11872848123311996,-0.11030717194080353
79.05259609222412,-0.2384699583053589,-0.2031799554824829,0.9367009997367859,0.9811798930168152,0.11867392063140869,-0.10999464988708496
79.15379619598389,-0.2344980239868164,-0.2072220742702484,0.9406538605690002,0.9811595678329468,0.11866703629493713,-0.11016152054071426
79.25497770309448,-0.24238383769989014,-0.21511724591255188,0.9404492974281311,0.9811423420906067,0.11886606365442276,-0.11013756692409515
79.35613441467285,-0.24239584803581238,-0.21113166213035583,0.9404652714729309,0.9811630249023438,0.11869337409734726,-0.1101260632276535
79.45703983306885,-0.23847496509552002,-0.20316144824028015,0.9328184127807617,0.9811907410621643,0.11853353679180145,-0.11004297435283661
79.55807948112488,-0.23842394351959229,-0.21517375111579895,0.94441819190979,0.9811447858810425,0.1187654659152031,-0.11021102219820023
79.65905547142029,-0.23846495151519775,-0.20319846272468567,0.9405835866928101,0.9811274409294128,0.11887177079916,-0.11025950312614441
79.76006078720093,-0.23450502753257751,-0.20325496792793274,0.944552481174469,0.9811802506446838,0.1186346784234047,-0.11002989858388901
79.86098456382751,-0.23846495151519775,-0.20319846272468567,0.9405835866928101,0.9811874032020569,0.1185099259018898,-0.11007346957921982
79.96192979812622,-0.24241983890533447,-0.20316046476364136,0.9404972791671753,0.9811905026435852,0.11848552525043488,-0.11006327718496323
80.06344556808472,-0.23449301719665527,-0.20724058151245117,0.9445364475250244,0.9811810851097107,0.118534617125988,-0.11010359972715378
80.16468906402588,-0.2384529411792755,-0.2071840465068817,0.9405675530433655,0.9812207221984863,0.11861470341682434,-0.10971320420503616
80.2660698890686,-0.2424028217792511,-0.20716455578804016,0.9443638920783997,0.981174111366272,0.11886020749807358,-0.10987161844968796
80.36722779273987,-0.24241983890533447,-0.20316046476364136,0.9404972791671753,0.9811556935310364,0.11879458278417587,-0.11006728559732437
80.46826982498169,-0.24244186282157898,-0.1991378664970398,0.9327480792999268,0.9811726212501526,0.11844316124916077,-0.11022679507732391
80.57007336616516,-0.24239584803581238,-0.21113166213035583,0.9404652714729309,0.981175422668457,0.11842520534992218,-0.1102212443947792
80.67131495475769,-0.23842895030975342,-0.2151552438735962,0.9405356049537659,0.9811564087867737,0.11859455704689026,-0.11021773517131805
80.77260732650757,-0.2384529411792755,-0.2071840465068817,0.9405675530433655,0.9811428785324097,0.1187039241194725,-0.11023589968681335
80.87387728691101,-0.23452705144882202,-0.19923236966133118,0.9368032813072205,0.9811469912528992,0.11866860091686249,-0.11022787541151047
80.97492671012878,-0.2384529411792755,-0.2071840465068817,0.9405675530433655,0.9811764359474182,0.11844170093536377,-0.11018114537000656
81.0761547088623,-0.23846295475959778,-0.20714706182479858,0.9328023791313171,0.9811573028564453,0.11857078969478607,-0.11022082716226578
81.17667746543884,-0.2423858642578125,-0.21116867661476135,0.9482304453849792,0.9811544418334961,0.1186346709728241,-0.11018911749124527
81.27740097045898,-0.2384459674358368,-0.21115118265151978,0.9366689920425415,0.981188952922821,0.1183905303478241,-0.1101202592253685
81.37822365760803,-0.2424028217792511,-0.20716455578804016,0.9443638920783997,0.9811936020851135,0.11845081299543381,-0.11001843214035034
81.4790530204773,-0.23843097686767578,-0.21120667457580566,0.948316752910614,0.9811823964118958,0.11850755661725998,-0.11005756258964539
81.58048796653748,-0.24635076522827148,-0.21109366416931152,0.9403789639472961,0.9811870455741882,0.11855073273181915,-0.10997890681028366
81.68164443969727,-0.24240383505821228,-0.21504324674606323,0.9249188899993896,0.9810385704040527,0.11919177323579788,-0.11007925868034363
81.78272557258606,-0.24635577201843262,-0.21107518672943115,0.936496376991272,0.9810440540313721,0.11886730045080185,-0.1097763329744339
81.88388752937317,-0.23844793438911438,-0.20720255374908447,0.9444501399993896,0.9811661243438721,0.11816482990980148,-0.10939917713403702
81.98495841026306,-0.2424248456954956,-0.2031419575214386,0.9366146922111511,0.981224000453949,0.11787256598472595,-0.10919656604528427
82.08622622489929,-0.24636775255203247,-0.20708957314491272,0.9365124106407166,0.9811795353889465,0.11801762133836746,-0.10937472432851791
82.18723511695862,-0.24240782856941223,-0.2071460485458374,0.9404813051223755,0.9811439514160156,0.11817573010921478,-0.10952302813529968
82.28815507888794,-0.24643772840499878,-0.1871245801448822,0.928827166557312,0.9811333417892456,0.11815602332353592,-0.10962892323732376
82.38908576965332,-0.23842895030975342,-0.2151552438735962,0.9405356049537659,0.9811218976974487,0.11826885491609573,-0.10963635891675949
82.48981833457947,-0.2384849488735199,-0.20312446355819702,0.9250531792640686,0.9811501502990723,0.11822143942117691,-0.1094469502568245
82.59053826332092,-0.2384459674358368,-0.21115118265151978,0.9366689920425415,0.9811534881591797,0.11817077547311783,-0.10945369303226471
82.69143962860107,-0.23451504111289978,-0.20321795344352722,0.9367873072624207,0.9811380505561829,0.1181391105055809,-0.10959835350513458
82.79249978065491,-0.23450803756713867,-0.20718508958816528,0.9328886866569519,0.9811663031578064,0.11791639029979706,-0.10956207662820816
82.89363670349121,-0.24240782856941223,-0.2071460485458374,0.9404813051223755,0.9811614155769348,0.11798315495252609,-0.10953962802886963
82.99485778808594,-0.23451003432273865,-0.20323646068572998,0.9406698942184448,0.9811501502990723,0.11816321313381195,-0.10947129130363464
83.09645056724548,-0.23448604345321655,-0.21120768785476685,0.9406378865242004,0.9811610579490662,0.11805059015750885,-0.10948584973812103
83.1976146697998,-0.24241983890533447,-0.20316046476364136,0.9404972791671753,0.9811148643493652,0.11830411851406097,-0.10964203625917435
83.29868364334106,-0.23846793174743652,-0.20712855458259583,0.9289197325706482,0.9811322093009949,0.11809196323156357,-0.10970138013362885
83.39975881576538,-0.2384529411792755,-0.2071840465068817,0.9405675530433655,0.981115996837616,0.11813466250896454,-0.10978489369153976
83.5005784034729,-0.2424008548259735,-0.21111318469047546,0.9365826845169067,0.9811059236526489,0.11836690455675125,-0.10967015475034714
83.60171890258789,-0.24241283535957336,-0.20712757110595703,0.9365987181663513,0.9810881018638611,0.11850404739379883,-0.10970443487167358
83.70282554626465,-0.23846495151519775,-0.20319846272468567,0.9405835866928101,0.9811235070228577,0.11835823208093643,-0.1095455139875412
83.80392646789551,-0.24240782856941223,-0.2071460485458374,0.9404813051223755,0.9811174273490906,0.11843160539865494,-0.1095256507396698
83.90483736991882,-0.2424318492412567,-0.1991748809814453,0.9405132532119751,0.9811694622039795,0.11805522441864014,-0.10942517220973969
84.00569891929626,-0.2384529411792755,-0.2071840465068817,0.9405675530433655,0.9811548590660095,0.11804967373609543,-0.10955942422151566
84.10696387290955,-0.23848697543144226,-0.1991758644580841,0.9328343868255615,0.9811570644378662,0.11802487820386887,-0.10956207662820816
84.2079668045044,-0.23845994472503662,-0.20321696996688843,0.9444661736488342,0.9811601042747498,0.11802542209625244,-0.10954667627811432
84.30918550491333,-0.23843595385551453,-0.2111881673336029,0.9444341659545898,0.9811596870422363,0.11806154251098633,-0.10952304303646088
84.41035985946655,-0.23847696185112,-0.19921287894248962,0.9405995607376099,0.981144905090332,0.11825788766145706,-0.10946705937385559
84.5115110874176,-0.2384699583053589,-0.2031799554824829,0.9367009997367859,0.9811450242996216,0.11809408664703369,-0.10961239784955978
84.61306643486023,-0.23451003432273865,-0.20323646068572998,0.9406698942184448,0.9811740517616272,0.11798762530088425,-0.1094670444726944
84.71423482894897,-0.24636077880859375,-0.2110566794872284,0.9326137900352478,0.9812225699424744,0.11786525696516037,-0.10919797420501709
84.81534242630005,-0.24242985248565674,-0.20312345027923584,0.932732105255127,0.9812977313995361,0.11764610558748245,-0.10875878483057022
84.91632437705994,-0.23844793438911438,-0.20720255374908447,0.9444501399993896,0.981233537197113,0.11795255541801453,-0.10903710126876831
85.017329454422,-0.23448103666305542,-0.2112261950969696,0.9445204734802246,0.9812398552894592,0.11793620139360428,-0.10901286453008652
85.11869287490845,-0.05243963748216629,-0.24493297934532166,0.9638926982879639,0.9813377261161804,0.11791868507862091,-0.10818547010421753
85.21964645385742,-1.5376371145248413,2.127248764038086,7.964667320251465,0.9808184504508972,0.11899145692586899,-0.11247336119413376
85.32070112228394,0.6929505467414856,-1.882766842842102,-1.414273977279663,-0.1541236937046051,0.7017609477043152,-0.4805447459220886
85.4216206073761,-0.6846316456794739,-0.40263256430625916,1.0270806550979614,-0.9138119220733643,-0.05142868310213089,0.2598373293876648
85.52266812324524,-0.14504525065422058,-1.2812286615371704,0.32089903950691223,-0.8521925210952759,-0.43584683537483215,0.28913718461990356
85.62417030334473,0.021393559873104095,-1.3392335176467896,0.45242545008659363,-0.7406522631645203,-0.538377046585083,0.23586277663707733
85.7252721786499,0.24683475494384766,0.2851024568080902,1.2133166790008545,-0.9680666327476501,-0.09799186885356903,-0.020234765484929085
85.82627820968628,0.4371199309825897,0.08455344289541245,1.1001811027526855,-0.9911385774612427,-0.010590066201984882,-0.10604753345251083
85.92741084098816,-0.28574374318122864,-0.40046849846839905,0.6126096248626709,-0.9363204836845398,-0.3041902184486389,0.07710924744606018
86.02853751182556,-0.39994385838508606,-0.5430700778961182,0.656122088432312,-0.916313648223877,-0.32111382484436035,0.21253743767738342
86.12983226776123,-0.5356674194335938,-0.040535956621170044,0.8532164692878723,-0.9549079537391663,-0.10280095040798187,0.2676621675491333
86.23036766052246,-0.8168283700942993,0.03838793933391571,0.7425629496574402,-0.9041376709938049,-0.15405665338039398,0.3964990973472595
86.33122086524963,-1.7623573541641235,-0.4282756745815277,-0.6466739773750305,-0.5539246797561646,-0.10699266195297241,0.7846989035606384
86.43230104446411,0.1933300495147705,0.3642747402191162,-0.2434922307729721,-0.7301753759384155,0.19134639203548431,0.1741904318332672
86.53335690498352,0.845155656337738,0.007178142666816711,1.4698636531829834,-0.9255601167678833,-0.17259278893470764,-0.3357257843017578
86.63508176803589,-0.5440891981124878,-0.33021438121795654,-0.23526813089847565,-0.760352611541748,-0.5380748510360718,0.3134951889514923
86.73634314537048,-0.46776914596557617,-0.7924704551696777,-0.4024362564086914,-0.6271070241928101,-0.5050868988037109,0.5906940698623657
86.8370623588562,-1.1210037469863892,1.4103797674179077,1.1491811275482178,-0.7182521224021912,-0.2646116316318512,0.6266041994094849
86.93752145767212,-0.7192147970199585,0.16821464896202087,0.06577745825052261,-0.8666043877601624,0.09436993300914764,0.48948654532432556
87.03841352462769,-1.4472612142562866,-1.178120493888855,-0.32059246301651,-0.7661628127098083,-0.31931963562965393,0.557125985622406
87.14065718650818,0.42268234491348267,-0.9490610957145691,-0.2632501423358917,-0.7563790082931519,-0.3737889528274536,0.5367268919944763
