timestamp,accel_x,accel_y,accel_z,gyro_x,gyro_y,gyro_z
34.33095121383667,0.3045913577079773,-0.7253299951553345,0.6979576945304871,0.9055578112602234,0.27169641852378845,-0.04623337835073471
34.43182301521301,-0.3636297285556793,-1.0781381130218506,-0.04412923380732536,0.7778500318527222,0.5553395748138428,-0.2852058708667755
34.532636404037476,-0.5819202661514282,-0.7657817006111145,0.08049806207418442,0.81156986951828,0.49573230743408203,-0.2951466739177704
34.633136510849,-0.2979104518890381,-0.4741198718547821,0.2004910707473755,0.8729208707809448,0.4404752850532532,-0.17176271975040436
34.73389673233032,0.3432343304157257,-0.5725921392440796,0.3499946594238281,0.9208322167396545,0.3447316884994507,0.1822824627161026
34.8348491191864,0.715226948261261,-0.5415517091751099,0.6222676634788513,0.9345088601112366,0.21461470425128937,0.2733328342437744
34.935803174972534,0.4748230278491974,-0.542360246181488,1.2731627225875854,0.9536646604537964,0.23882070183753967,0.1802501082420349
35.03672790527344,0.26231446862220764,-0.9698651432991028,1.0804097652435303,0.9277604222297668,0.3433096408843994,0.1038474291563034
35.1376371383667,0.08627185970544815,-0.5823379755020142,0.3986935317516327,0.8811327815055847,0.43388456106185913,0.15113575756549835
35.23848223686218,-0.030002135783433914,-0.940744936466217,1.4080390930175781,0.9081398844718933,0.3791179656982422,0.11566081643104553
35.340126752853394,0.4268152415752411,-0.512284517288208,0.9111574292182922,0.9486126899719238,0.26499852538108826,0.1374407857656479
35.44126772880554,0.1772535741329193,-0.3546926975250244,0.9568182826042175,0.9938844442367554,0.01183551736176014,0.07704421132802963
35.54194784164429,0.4186743497848511,0.9930152297019958,1.1889010667800903,0.9934102892875671,-0.008013259619474411,0.047683924436569214
35.64264178276062,0.23360615968704224,-0.8002798557281494,0.6766873002052307,0.9479175806045532,0.2423914670944214,0.10803890228271484
35.74345803260803,0.5192979574203491,-1.0114326477050781,0.926672637462616,0.9426296353340149,0.2602764368057251,0.1568155437707901
35.844279289245605,-0.21966144442558289,0.06820584088563919,0.8217424750328064,0.9627448916435242,0.2128637731075287,0.06674694269895554
35.94516444206238,0.08170405775308609,-1.6823986768722534,0.4174005687236786,0.9423158168792725,0.2814250886440277,0.0629877820611
36.04611325263977,0.09400665014982224,-0.4438244700431824,0.5896735787391663,0.9445685148239136,0.27777743339538574,0.08449827879667282
36.14697980880737,0.2991974651813507,-0.33767127990722656,0.4858803451061249,0.9578901529312134,0.22943098843097687,0.05120418965816498
36.247942209243774,0.3249008357524872,0.1592705398797989,3.214031457901001,0.9725774526596069,0.16352489590644836,0.039635807275772095
36.34934949874878,0.3942500352859497,-0.023786760866642,1.3395209312438965,0.9745055437088013,0.14751525223255157,0.04132672771811485
36.45040011405945,-0.04486183822154999,-0.1610153615474701,0.9022797346115112,0.9837409257888794,0.07431972026824951,0.02193731814622879
36.55142283439636,0.008762761019170284,-0.009270161390304565,-0.10539613664150238,0.9861413240432739,0.04678605869412422,0.03265378996729851
36.65233898162842,1.42121422290802,-2.05342698097229,-1.3446943759918213,0.9449576139450073,0.3143223822116852,-0.013858654536306858
36.75326418876648,-0.5608128309249878,-0.35824716091156006,-1.0122613906860352,0.3620884418487549,0.7502377033233643,-0.5481430888175964
36.85415434837341,-0.13869252800941467,-0.015528954565525055,-1.009400486946106,0.06210525333881378,0.60666823387146,-0.7924233078956604
36.95497369766235,0.30088233947753906,-0.21107426285743713,-0.9967065453529358,-0.14641286432743073,0.42549681663513184,-0.8758386373519897
37.05585193634033,0.45153355598449707,-0.25328075885772705,-0.8033397197723389,-0.20266349613666534,0.3337329924106598,-0.8421005606651306
37.1567497253418,0.036840058863162994,0.17030495405197144,0.6297553777694702,-0.6247708201408386,0.32643628120422363,-0.24615269899368286
37.25763654708862,-0.26544925570487976,-0.8164084553718567,0.03673626109957695,-0.91587895154953,-0.2624918520450592,0.24711336195468903
37.35904145240784,-0.5172038078308105,-1.102771282196045,0.4144384562969208,-0.8247869610786438,-0.4951951503753662,0.2708561420440674
37.4600031375885,-0.0019039381295442581,0.10858844220638275,1.113977313041687,-0.989581823348999,-0.10143809765577316,0.10198276489973068
37.5609986782074,0.3679177463054657,-0.7221742868423462,0.7459456324577332,-0.9538964629173279,-0.2725211977958679,-0.11682183295488358
37.66195774078369,0.2837938368320465,-0.311470091342926,0.873907208442688,-0.962108314037323,-0.19185839593410492,-0.16077862679958344
37.763102293014526,0.20450186729431152,-0.2429918646812439,0.8802183866500854,-0.9685916900634766,-0.13962195813655853,-0.1311825066804886
37.86443734169006,0.04221196100115776,-0.15421316027641296,0.9740970730781555,-0.9764140248298645,-0.09601594507694244,-0.052842721343040466
37.96544098854065,-0.17567652463912964,-0.02463945746421814,0.98151034116745,-0.9742302298545837,-0.04826149716973305,0.040168359875679016
38.06627702713013,-0.033199138939380646,-0.05791076272726059,0.988371729850769,-0.9758185744285583,-0.03231603279709816,0.02761652320623398
38.16707754135132,0.06577636301517487,-0.09471266716718674,0.9865026473999023,-0.9781064987182617,-0.035582687705755234,-0.01754998043179512
38.267834186553955,-0.025363337248563766,-0.030124567449092865,0.9964215755462646,-0.9774500727653503,-0.0272989459335804,-0.00557101471349597
38.36900234222412,0.014271659776568413,-0.06235235929489136,0.9893913269042969,-0.977528989315033,-0.02793249674141407,-0.006558985915035009
38.46984910964966,-0.0015449374914169312,-0.05827026069164276,1.000709891319275,-0.9774777293205261,-0.0274654570966959,-0.005568635184317827
38.570796489715576,-0.0015649385750293732,-0.058196261525154114,0.9851795434951782,-0.9774773716926575,-0.02750185690820217,-0.006450406741350889
38.67287015914917,0.002399960532784462,-0.058271266520023346,0.9930310845375061,-0.9774535894393921,-0.027609528973698616,-0.006289176642894745
38.77427816390991,-0.0015669390559196472,-0.0542476624250412,0.9929608106613159,-0.97745680809021,-0.02740533836185932,-0.006340942345559597
38.87554430961609,0.01031475979834795,-0.05836576223373413,0.9970862865447998,-0.977444052696228,-0.027631884440779686,-0.006197958253324032
38.97661828994751,0.002387959510087967,-0.05428566783666611,0.9930471181869507,-0.9774449467658997,-0.02756986767053604,-0.006185511592775583
39.077635288238525,-0.0015649385750293732,-0.058196261525154114,0.9851795434951782,-0.9774482846260071,-0.02744724228978157,-0.006175985559821129
39.17864274978638,-0.005487838760018349,-0.06221786141395569,1.0006076097488403,-0.9774512052536011,-0.027552682906389236,-0.006083459593355656
39.27957463264465,0.002404959872364998,-0.05828976631164551,0.9969136714935303,-0.9774582982063293,-0.027264457195997238,-0.005918442737311125
39.38090991973877,-0.0015499386936426163,-0.0582517609000206,0.9968273639678955,-0.9774553775787354,-0.02736472338438034,-0.005918560549616814
39.481847047805786,0.06530335545539856,0.04103824123740196,0.9365728497505188,-0.9724547266960144,-0.029815707355737686,-0.009471810422837734
39.582948207855225,-0.0806659385561943,0.017457637935876846,1.1584745645523071,-0.9210335612297058,-0.0363876074552536,-0.002296766499057412
39.68360614776611,-0.06785324215888977,-0.39604878425598145,0.9241135120391846,-0.23732540011405945,-0.01982494816184044,-0.13554756343364716
39.7840690612793,0.05512966215610504,-0.5681080222129822,0.8212705850601196,-0.15122570097446442,-0.020037265494465828,-0.2413358986377716
39.88465690612793,0.004083959385752678,-0.702976405620575,0.7885438799858093,-0.114716537296772,0.0439201295375824,-0.3686183989048004
39.985517263412476,0.21749255061149597,-0.6926276683807373,0.7000696659088135,-0.13383139669895172,0.05821087956428528,-0.37044525146484375
40.086562156677246,0.3079182207584381,-0.4708075225353241,0.8077808022499084,-0.22284995019435883,0.033477723598480225,-0.2943893373012543
40.18757963180542,-0.18319135904312134,-0.28220295906066895,0.6813375353813171,-0.3775489628314972,-0.1347593069076538,-0.2201804667711258
40.28832530975342,-0.33682143688201904,-0.4327472746372223,0.7977244853973389,-0.6336543560028076,-0.23530705273151398,0.010041133500635624
40.389167070388794,-0.804573655128479,-0.14052307605743408,0.625623881816864,-0.8150845170021057,-0.3309113085269928,0.18406610190868378
40.48969626426697,-0.6291580200195312,-0.6006130576133728,0.6431114673614502,-0.8826838135719299,-0.35376179218292236,0.21783120930194855
40.590476274490356,-0.17457354068756104,-0.438605397939682,0.8672509789466858,-0.942042887210846,-0.3134758472442627,0.09877599775791168
40.691325664520264,0.19345414638519287,-0.545431911945343,0.8049740791320801,-0.9569907188415527,-0.28723686933517456,-0.035415034741163254
40.79217839241028,0.12978076934814453,-0.46453842520713806,0.6835526823997498,-0.9496379494667053,-0.30337971448898315,-0.06242915615439415
40.89318037033081,0.1876213550567627,-1.3255161046981812,0.5881224870681763,-0.8831179738044739,-0.45937684178352356,-0.04553991183638573
40.9941132068634,-0.19089916348457336,-0.34593355655670166,0.6886742115020752,-0.9309490919113159,-0.3076306879520416,-0.0009418415138497949
41.095019817352295,0.19674906134605408,-0.26714399456977844,0.9459539651870728,-0.9230314493179321,-0.1121327206492424,-0.14476794004440308
41.1959502696991,0.8213792443275452,-0.284068763256073,0.7421157360076904,-0.8706562519073486,-0.10942590981721878,-0.28157472610473633
41.297165393829346,0.2599174678325653,-0.46440497040748596,0.3952055275440216,-0.6898378133773804,-0.195674329996109,-0.5046913027763367
41.39915418624878,0.3850083351135254,-1.5862107276916504,-0.3016165494918823,-0.5579306483268738,-0.31795212626457214,-0.595363438129425
41.500341176986694,0.5307736396789551,-1.1795789003372192,0.22349296510219574,-0.5913236141204834,-0.30219385027885437,-0.5374325513839722
41.601431131362915,0.36957964301109314,0.12968853116035461,0.9629989266395569,-0.7796887159347534,-0.043456584215164185,-0.28020966053009033
41.70247983932495,0.3723006546497345,-0.8577967882156372,0.7610183358192444,-0.8838658332824707,-0.11809428036212921,-0.07034047693014145
41.803518772125244,-0.5578378438949585,-0.7436686158180237,0.4111328423023224,-0.855094850063324,-0.4410719573497772,0.04620825871825218
41.904648303985596,-0.5313295722007751,-0.7080538272857666,-0.426776647567749,-0.6599202156066895,-0.6685007214546204,0.28471821546554565
42.005699157714844,-0.9318224191665649,-0.34957146644592285,-0.41853854060173035,-0.6067386865615845,-0.6106484532356262,0.4746849834918976
42.106650590896606,-1.0430494546890259,0.008013539016246796,0.0386318638920784,-0.5945579409599304,-0.4196033775806427,0.6501672863960266
42.20761585235596,-0.9953888058662415,-0.1547790765762329,-0.18617932498455048,-0.5747796893119812,-0.414114385843277,0.6493954062461853
42.3086462020874,-1.006746530532837,-0.21960017085075378,0.057909563183784485,-0.6636087894439697,-0.4066673815250397,0.5388088822364807
42.40985321998596,-0.94292813539505,-0.26161816716194153,0.3852687478065491,-0.7252314686775208,-0.3350701630115509,0.4302064776420593
42.51100516319275,-0.8203062415122986,-0.20375216007232666,0.543488085269928,-0.7207806706428528,-0.34983399510383606,0.33295342326164246
42.61193370819092,-0.8475075364112854,-0.4180980622768402,0.4138941466808319,-0.6121806502342224,-0.46575072407722473,0.19009914994239807
42.7126522064209,-0.7614407539367676,0.010197237133979797,0.6931853890419006,-0.5151073336601257,-0.3327319025993347,0.23238447308540344
42.81342053413391,-0.6824877262115479,0.06909173727035522,0.7223295569419861,-0.4575468599796295,-0.29087430238723755,0.20925071835517883
42.91456079483032,-0.5553529262542725,-0.06826366484165192,0.8565555810928345,-0.2958284020423889,-0.23785214126110077,0.07259873300790787
43.01565384864807,-0.04099494218826294,-0.14496296644210815,0.8713691830635071,-0.11592621356248856,-0.005771045573055744,-0.05764913558959961
43.11671161651611,0.5317135453224182,0.09272263944149017,0.8693282604217529,-0.08693788945674896,0.22378727793693542,-0.03832859545946121
43.217756032943726,0.6024407744407654,0.10556794703006744,0.540908694267273,-0.30526015162467957,0.23982210457324982,-0.24123074114322662
43.31870627403259,0.3208029568195343,-1.046169638633728,0.24662527441978455,-0.3793542981147766,-0.022697707638144493,-0.5478276014328003
43.420204877853394,0.03977105766534805,-0.9361933469772339,0.31081676483154297,-0.41920122504234314,-0.21309411525726318,-0.48159560561180115
43.52129912376404,-0.201360821723938,-0.9579554200172424,0.3403998613357544,-0.41150349378585815,-0.3241231441497803,-0.4324305057525635
43.622347354888916,-0.11869592219591141,-0.8036110997200012,0.40495777130126953,-0.41138458251953125,-0.324829638004303,-0.4354248046875
43.72323942184448,0.45828142762184143,-0.5553016662597656,0.6748331785202026,-0.6063603162765503,-0.08663348108530045,-0.4294907748699188
43.82410430908203,0.43799394369125366,-0.3798007667064667,0.686753511428833,-0.694044828414917,0.0073877437971532345,-0.37324562668800354
43.924962759017944,0.54092937707901,-0.4166591763496399,0.6888532638549805,-0.8101171255111694,0.0139006357640028,-0.37122270464897156
44.026108741760254,0.8249491453170776,-0.24327027797698975,0.5365842580795288,-0.8530094027519226,-0.09170970320701599,-0.4647061228752136
44.12717938423157,0.7588227987289429,-0.7038993239402771,0.31195294857025146,-0.8385442495346069,-0.2978672385215759,-0.4434141218662262
44.228214740753174,2.854418992996216,0.1567019373178482,2.0501909255981445,-0.8757089972496033,-0.40498897433280945,-0.23868043720722198
44.32928395271301,0.2208484411239624,-0.6825669407844543,0.2536889612674713,-0.8005163669586182,-0.5650225281715393,-0.18497300148010254
44.431769371032715,-0.24100184440612793,-0.9138818383216858,0.37077364325523376,-0.7909902930259705,-0.5932190418243408,-0.10890113562345505
44.53299570083618,0.03579916059970856,-0.9321512579917908,0.30686384439468384,-0.7978612780570984,-0.5833943486213684,-0.10695459693670273
44.63365173339844,0.0358111597597599,-0.9361369013786316,0.30684784054756165,-0.7988902926445007,-0.5821384787559509,-0.10401838272809982
44.73418378829956,0.048029858618974686,-1.0636792182922363,0.28329914808273315,-0.8059161305427551,-0.5736342668533325,-0.10962843894958496
44.83506107330322,0.395268052816391,-0.6542041301727295,0.6458742022514343,-0.9029867053031921,-0.39272433519363403,-0.16671879589557648
44.9360613822937,0.6240202188491821,-0.4530685842037201,0.636165201663971,-0.8773515820503235,-0.2888927757740021,-0.24457921087741852
45.03698492050171,0.6271631121635437,-0.1702769696712494,0.6684483289718628,-0.800002932548523,-0.2674809992313385,-0.2717321813106537
45.13781023025513,0.7221847772598267,-0.19916215538978577,0.6859378814697266,-0.7030563950538635,-0.3107735812664032,-0.2531743049621582
45.238739252090454,0.7337974309921265,-0.15499058365821838,0.5931903719902039,-0.6351743936538696,-0.33733466267585754,-0.2339201718568802
45.33965706825256,0.8251651525497437,-0.35442307591438293,0.44295385479927063,-0.36917439103126526,-0.4714604616165161,-0.03390149399638176
45.44107437133789,0.7987998127937317,-0.8792757391929626,0.23445996642112732,-0.30732473731040955,-0.505980908870697,0.1652492731809616
45.54186701774597,0.07940405607223511,-0.9841786026954651,0.26489657163619995,-0.29984208941459656,-0.3239646553993225,0.4427764117717743
45.64258646965027,-0.11471103876829147,-0.7840540409088135,0.47501084208488464,-0.33857637643814087,-0.0044367811642587185,0.41301801800727844
45.743210315704346,-0.9383182525634766,-0.3231976628303528,0.7539620399475098,-0.3411789536476135,0.14578604698181152,0.4288751780986786
45.84384346008301,-0.6613742113113403,-0.5745269656181335,0.2503744661808014,-0.3365427851676941,0.12220895290374756,0.4775558412075043
45.94447660446167,-0.2063007354736328,-0.5601529479026794,0.5088653564453125,-0.3211900591850281,0.021969513967633247,0.4512655735015869
46.04518961906433,-0.1144990399479866,-0.9267216324806213,0.3036004304885864,-0.3129172921180725,-0.03547007963061333,0.39937493205070496
46.14580202102661,0.05864955857396126,-0.7635965943336487,0.0168586615473032,-0.3262919485569,-0.07262705266475677,0.3915186822414398
46.24648427963257,-0.1340315341949463,-1.1678403615951538,-0.07830184698104858,-0.29443487524986267,-0.143482506275177,0.4850235879421234
46.34699726104736,-0.362926721572876,-0.5447359681129456,1.7712209224700928,-0.3038333058357239,-0.13144619762897491,0.4695546627044678
46.44766020774841,-0.5582358241081238,0.2982807457447052,2.566317319869995,-0.30555620789527893,-0.12266945093870163,0.37631818652153015
46.54817247390747,-0.33324941992759705,-1.9278548955917358,0.06177966296672821,-0.30659154057502747,-0.1265166997909546,0.36733371019363403
46.649269580841064,0.8784127235412598,0.6894282698631287,1.2520681619644165,-0.30840128660202026,-0.11004116386175156,0.2971307635307312
46.750155210494995,-0.10092543810606003,0.07856014370918274,0.9214444756507874,-0.3122188150882721,-0.05354892462491989,0.20816084742546082
46.85114622116089,0.2697012424468994,-1.3857733011245728,-0.3149670362472534,-0.3276296854019165,-0.08888505399227142,0.25798729062080383
46.952292919158936,0.21045464277267456,0.3790002465248108,0.8168827891349792,-0.3130742907524109,-0.08469599485397339,0.14814163744449615
47.05348563194275,-0.17280954122543335,0.1775774359703064,3.7118420600891113,-0.34070953726768494,-0.0765451043844223,0.16024009883403778
47.15452980995178,-0.5222528576850891,0.36233052611351013,-0.08054493367671967,-0.33067288994789124,-0.08362089842557907,0.11988657712936401
47.25562143325806,-0.17262154817581177,-0.3118269741535187,2.7003822326660156,-0.33584773540496826,-0.056570179760456085,0.1356479674577713
47.356393337249756,0.38383424282073975,0.23385703563690186,-0.018553640693426132,-0.3447762727737427,-0.05124752223491669,0.1292274445295334
47.45706343650818,0.09304765611886978,-0.2944517731666565,0.1903577595949173,-0.33919909596443176,-0.06257960945367813,0.15978136658668518
47.5580198764801,0.21189764142036438,-0.33181366324424744,0.26657214760780334,-0.34943607449531555,-0.038985706865787506,0.14335186779499054
47.65899419784546,-0.4153915047645569,0.6093078851699829,0.5711873769760132,-0.3494710624217987,-0.0584053136408329,0.16354280710220337
47.759976625442505,0.4126526415348053,-0.4433806836605072,2.374856472015381,-0.33681395649909973,-0.08443418145179749,0.20087355375289917
47.86088848114014,2.4412453174591064,0.07690314203500748,0.3790949583053589,-0.16572082042694092,-0.6658555269241333,-0.015730969607830048
47.96208739280701,2.077484369277954,0.08006614446640015,0.4410421550273895,-0.09894774854183197,-0.618867814540863,-0.07840505987405777
48.06312274932861,-0.4518473148345947,-4.176152229309082,-2.124223470687866,-0.20701180398464203,-0.5051276087760925,0.24177296459674835
48.16414737701416,-0.10311533510684967,-0.9920563101768494,-0.22832883894443512,-0.14336663484573364,-0.11739101260900497,0.7482944130897522
48.26514220237732,-0.6471556425094604,0.11307234317064285,0.6223346590995789,-0.178150475025177,0.34327298402786255,0.2876315414905548
48.36615037918091,-0.44088485836982727,-0.0015364624559879303,0.843799889087677,-0.1854638159275055,0.21336805820465088,0.09065056592226028
48.46754503250122,-0.4004848599433899,-0.23365479707717896,0.9640954732894897,-0.2131488174200058,0.12983402609825134,0.2134300172328949
48.568607807159424,-0.23771095275878906,-0.5094606280326843,0.8073431849479675,-0.2729640007019043,0.0786857083439827,0.17568321526050568
48.6696093082428,-0.3823183476924896,0.3396376371383667,1.0600132942199707,-0.3202403783798218,0.12676486372947693,0.18506848812103271
48.77071213722229,-0.3849542438983917,-0.1657370626926422,0.8987084627151489,-0.3399764597415924,0.1577933430671692,0.1649041473865509
48.871615171432495,-0.34533020853996277,-0.186100572347641,0.9111392498016357,-0.3458488881587982,0.1436612606048584,0.1614067256450653
48.972527265548706,-0.3612048625946045,-0.16603907942771912,0.914756715297699,-0.34557271003723145,0.14510396122932434,0.15794022381305695
49.0733642578125,-0.36909765005111694,-0.1699671447277069,0.9184507131576538,-0.3466240167617798,0.14285311102867126,0.15321415662765503
49.17424988746643,-0.3651167154312134,-0.181924968957901,0.9107237458229065,-0.34685587882995605,0.14235343039035797,0.1523115187883377
49.275339126586914,-0.36117884516716003,-0.1779588758945465,0.9069434404373169,-0.3470431864261627,0.14204180240631104,0.15122607350349426
49.37647557258606,-0.36120283603668213,-0.16998767852783203,0.9069754481315613,-0.3472186028957367,0.14179635047912598,0.15029937028884888
49.4779372215271,-0.357247918844223,-0.17002567648887634,0.907061755657196,-0.3473350405693054,0.14155608415603638,0.14970609545707703
49.57876539230347,-0.3532710373401642,-0.17408627271652222,0.9148973226547241,-0.34740084409713745,0.14142674207687378,0.1494748592376709
49.679617404937744,-0.3651287257671356,-0.17793935537338257,0.9107397794723511,-0.3474092185497284,0.14126244187355042,0.14957548677921295
49.78059220314026,-0.35328102111816406,-0.1740492582321167,0.907132089138031,-0.34745877981185913,0.1413005143404007,0.14948228001594543
49.881508588790894,-0.36516472697257996,-0.16598257422447205,0.9107877612113953,-0.3475450873374939,0.14136715233325958,0.14917194843292236
49.98240089416504,-0.3651217222213745,-0.18190646171569824,0.9068411588668823,-0.3475480079650879,0.1413286030292511,0.1492225080728531
50.08329749107361,-0.36118084192276,-0.1740102767944336,0.9147247076034546,-0.3476111888885498,0.14123529195785522,0.1490180343389511
50.1841824054718,-0.36119285225868225,-0.17002466320991516,0.9147406816482544,-0.3476630449295044,0.14137713611125946,0.14893537759780884
50.285019874572754,-0.357232928276062,-0.17008116841316223,0.9187095761299133,-0.34770095348358154,0.14143000543117523,0.14888304471969604
50.385897636413574,-0.36516472697257996,-0.16598257422447205,0.9107877612113953,-0.3480970561504364,0.14149120450019836,0.1480461210012436
50.488457441329956,-0.36912664771080017,-0.16197746992111206,0.9146000742912292,-0.3509994149208069,0.14211654663085938,0.14657540619373322
50.589629888534546,-0.3651527166366577,-0.1699681580066681,0.9107717275619507,-0.3510412275791168,0.1424209326505661,0.1465948224067688
50.690491676330566,-0.361197829246521,-0.1700061559677124,0.9108580350875854,-0.3512101471424103,0.14237076044082642,0.14648739993572235
50.79136037826538,-0.36120983958244324,-0.16602057218551636,0.91087406873703,-0.35139378905296326,0.1426597535610199,0.14657936990261078
50.892420053482056,-0.3651867210865021,-0.16195997595787048,0.9030385613441467,-0.3517593741416931,0.14264416694641113,0.14642168581485748
50.993491888046265,-0.36514773964881897,-0.16998666524887085,0.9146543741226196,-0.3518115282058716,0.1427159309387207,0.14659330248832703
51.0946159362793,-0.36516472697257996,-0.16598257422447205,0.9107877612113953,-0.35187190771102905,0.14263707399368286,0.14656542241573334
51.195714473724365,-0.3651597499847412,-0.1660010814666748,0.9146704077720642,-0.3519309163093567,0.14267221093177795,0.14664451777935028
51.296796798706055,-0.3612118363380432,-0.16207197308540344,0.918655276298523,-0.3519987165927887,0.14257042109966278,0.1464320719242096
51.39776539802551,-0.36121484637260437,-0.1660020649433136,0.9069914817810059,-0.3520466089248657,0.1427101343870163,0.14647528529167175
51.498863697052,-0.36911964416503906,-0.16594454646110535,0.9107014536857605,-0.352100670337677,0.14277344942092896,0.14642319083213806
51.59935212135315,-0.35725992918014526,-0.1660400629043579,0.9070777893066406,-0.3522055447101593,0.1429111659526825,0.14629842340946198
51.70001411437988,-0.3572429120540619,-0.1700441539287567,0.9109443426132202,-0.3522019684314728,0.1428927481174469,0.1463995724916458
51.80106043815613,-0.3572719097137451,-0.16205447912216187,0.9070937633514404,-0.35219842195510864,0.1429661214351654,0.1465236246585846
51.902687788009644,-0.36516472697257996,-0.16598257422447205,0.9107877612113953,-0.3522588312625885,0.14277078211307526,0.14618316292762756
52.00351643562317,-0.3612048625946045,-0.16603907942771912,0.914756715297699,-0.3522650897502899,0.1425471007823944,0.1461571753025055
52.104615926742554,-0.3572719097137451,-0.16205447912216187,0.9070937633514404,-0.3522745966911316,0.1424659639596939,0.14619886875152588
52.20575404167175,-0.35723793506622314,-0.17006266117095947,0.9148269891738892,-0.35225382447242737,0.14244435727596283,0.14641115069389343
52.30701470375061,-0.36121484637260437,-0.1660020649433136,0.9069914817810059,-0.3523503243923187,0.14262327551841736,0.14614497125148773
52.408214807510376,-0.3651767075061798,-0.1619969606399536,0.9108037352561951,-0.35236579179763794,0.14260847866535187,0.1461513191461563
52.50988149642944,-0.357266902923584,-0.16207295656204224,0.9109763503074646,-0.3523942232131958,0.14271117746829987,0.1461072862148285
52.610716104507446,-0.3651547431945801,-0.16601955890655518,0.9185529947280884,-0.3523867428302765,0.1428872048854828,0.14634969830513
52.71164321899414,-0.3730575442314148,-0.16991066932678223,0.9144818186759949,-0.35241076350212097,0.1426382064819336,0.14632190763950348
52.81271481513977,-0.36119285225868225,-0.17002466320991516,0.9147406816482544,-0.35248473286628723,0.14249731600284576,0.14612911641597748
52.913655042648315,-0.3612268269062042,-0.16201648116111755,0.9070074558258057,-0.3525101840496063,0.1427040547132492,0.1462193876504898
53.01466131210327,-0.36516472697257996,-0.16598257422447205,0.9107877612113953,-0.35249510407447815,0.14255383610725403,0.14634811878204346
53.11575794219971,-0.36516472697257996,-0.16598257422447205,0.9107877612113953,-0.3524898588657379,0.1422971934080124,0.14634586870670319
53.21691083908081,-0.36514773964881897,-0.16998666524887085,0.9146543741226196,-0.35268476605415344,0.14253972470760345,0.14620237052440643
53.31807470321655,-0.36516472697257996,-0.16598257422447205,0.9107877612113953,-0.3526967465877533,0.1426638811826706,0.14635460078716278
53.41922569274902,-0.36118283867836,-0.17006167769432068,0.9225058555603027,-0.35274893045425415,0.14251834154129028,0.14618434011936188
53.52080249786377,-0.3612218201160431,-0.16203495860099792,0.9108900427818298,-0.35278481245040894,0.1427783966064453,0.14622677862644196
53.621612310409546,-0.35726192593574524,-0.162091463804245,0.9148589968681335,-0.3528158366680145,0.1426537036895752,0.14611056447029114
53.722575187683105,-0.3651597499847412,-0.1660010814666748,0.9146704077720642,-0.35284075140953064,0.14277487993240356,0.1461464911699295
53.82366156578064,-0.36519575119018555,-0.1540442705154419,0.9147183895111084,-0.3529149293899536,0.14277715981006622,0.14589181542396545
53.9246826171875,-0.36119285225868225,-0.17002466320991516,0.9147406816482544,-0.3530260920524597,0.14272239804267883,0.14569272100925446
54.02559185028076,-0.361163854598999,-0.1780143678188324,0.9185912609100342,-0.35328489542007446,0.14266689121723175,0.1454412192106247
54.12643027305603,-0.3652147352695465,-0.14609158039093018,0.918632984161377,-0.3576354682445526,0.1449434906244278,0.13974395394325256
54.227248430252075,-0.3652007281780243,-0.15402576327323914,0.9108357429504395,-0.3577290177345276,0.14504927396774292,0.14006835222244263
54.32807636260986,-0.36521974205970764,-0.14607307314872742,0.9147503972053528,-0.35780057311058044,0.14521844685077667,0.13977698981761932
54.428882122039795,-0.3612578213214874,-0.1500781774520874,0.910938024520874,-0.3578672409057617,0.1450224369764328,0.1396564543247223
54.5318717956543,-0.36124783754348755,-0.15011516213417053,0.9187032580375671,-0.35788843035697937,0.14504459500312805,0.13950185477733612
54.63252377510071,-0.3612598478794098,-0.1461295783519745,0.9187192916870117,-0.3578946590423584,0.14502544701099396,0.13948756456375122
54.73345637321472,-0.36519575119018555,-0.1540442705154419,0.9147183895111084,-0.3579159677028656,0.14508450031280518,0.1394442319869995
54.83452129364014,-0.35729292035102844,-0.15015316009521484,0.9187895655632019,-0.357890784740448,0.14500604569911957,0.13961635529994965
54.935667753219604,-0.36520272493362427,-0.15007716417312622,0.9186170101165771,-0.35791075229644775,0.14481668174266815,0.13961604237556458
55.03685903549194,-0.36917465925216675,-0.1460350751876831,0.914664089679718,-0.3579384386539459,0.14483751356601715,0.1396307647228241
55.13783144950867,-0.36520272493362427,-0.15007716417312622,0.9186170101165771,-0.3580021560192108,0.14523470401763916,0.13947966694831848
55.238816022872925,-0.3651997447013855,-0.14614707231521606,0.9302808046340942,-0.3580178916454315,0.14520211517810822,0.13953286409378052
55.33976650238037,-0.36125484108924866,-0.14614808559417725,0.9226018786430359,-0.3580910861492157,0.14513637125492096,0.1393023580312729
55.440733432769775,-0.3612428307533264,-0.1501336693763733,0.9225858449935913,-0.3580491542816162,0.14523571729660034,0.1396888941526413
55.54217743873596,-0.3612578213214874,-0.1500781774520874,0.910938024520874,-0.3580833673477173,0.14536578953266144,0.13971054553985596
55.64301609992981,-0.36519771814346313,-0.15009567141532898,0.9224995970726013,-0.3581460416316986,0.14524364471435547,0.1395682841539383
55.74395942687988,-0.36125484108924866,-0.14614808559417725,0.9226018786430359,-0.35820144414901733,0.1452123075723648,0.13940788805484772
55.84506916999817,-0.36126282811164856,-0.15005967020988464,0.9070554375648499,-0.3582623302936554,0.14523863792419434,0.13929928839206696
55.94621396064758,-0.36520272493362427,-0.15007716417312622,0.9186170101165771,-0.3582792282104492,0.1450212448835373,0.13935339450836182
56.04726433753967,-0.3612598478794098,-0.1461295783519745,0.9187192916870117,-0.35829657316207886,0.14518329501152039,0.13943852484226227
56.148324966430664,-0.36519575119018555,-0.1540442705154419,0.9147183895111084,-0.35828515887260437,0.14514628052711487,0.1395859718322754
56.24940800666809,-0.3573049306869507,-0.1461675763130188,0.9188055992126465,-0.3583463132381439,0.14517919719219208,0.13949210941791534
56.35040998458862,-0.36126983165740967,-0.14609256386756897,0.9109540581703186,-0.3583660125732422,0.1449493020772934,0.1394502818584442
56.451491832733154,-0.3691696524620056,-0.14605355262756348,0.9185466766357422,-0.35841187834739685,0.14504550397396088,0.13937027752399445
56.552852153778076,-0.36521270871162415,-0.1500401794910431,0.910851776599884,-0.35840725898742676,0.14526088535785675,0.1395602822303772
56.65414595603943,-0.3573099374771118,-0.14614906907081604,0.9149230122566223,-0.35841643810272217,0.14533834159374237,0.1396072953939438
56.75510096549988,-0.36519575119018555,-0.1540442705154419,0.9147183895111084,-0.35847586393356323,0.14538735151290894,0.13956016302108765
56.85577630996704,-0.36126282811164856,-0.15005967020988464,0.9070554375648499,-0.3584716022014618,0.14535248279571533,0.13966034352779388
56.956732988357544,-0.3533480167388916,-0.15015417337417603,0.9111106395721436,-0.35852357745170593,0.14547203481197357,0.13954567909240723
57.057910442352295,-0.3652317523956299,-0.14208745956420898,0.9147663712501526,-0.3585408329963684,0.14542090892791748,0.1395852118730545
57.15907168388367,-0.3612598478794098,-0.1461295783519745,0.9187192916870117,-0.3585665225982666,0.1453474909067154,0.13957180082798004
57.26016092300415,-0.3652247190475464,-0.14605456590652466,0.9108677506446838,-0.35856255888938904,0.1454564481973648,0.13973446190357208
57.36131286621094,-0.3612528443336487,-0.15009668469429016,0.914820671081543,-0.3585944175720215,0.14524176716804504,0.1395871639251709
57.46249175071716,-0.3691726326942444,-0.14998367428779602,0.9068828821182251,-0.35864871740341187,0.14538578689098358,0.13960246741771698
57.56377363204956,-0.3612528443336487,-0.15009668469429016,0.914820671081543,-0.35868173837661743,0.14527031779289246,0.1395956426858902
57.66467356681824,-0.36126983165740967,-0.14609256386756897,0.9109540581703186,-0.3586864471435547,0.14546434581279755,0.13977283239364624
57.76562452316284,-0.3573099374771118,-0.14614906907081604,0.9149230122566223,-0.358717679977417,0.1453210860490799,0.13967855274677277
57.86656355857849,-0.3612458407878876,-0.15406376123428345,0.9109220504760742,-0.3587121069431305,0.1451612114906311,0.13973620533943176
57.967501401901245,-0.3612598478794098,-0.1461295783519745,0.9187192916870117,-0.35874348878860474,0.14535942673683167,0.13975748419761658
58.06839656829834,-0.3691626489162445,-0.15002065896987915,0.9146481156349182,-0.3587615489959717,0.14534713327884674,0.13977481424808502
58.169206619262695,-0.3612358570098877,-0.15410077571868896,0.9186872839927673,-0.35876795649528503,0.1450398713350296,0.13977213203907013
58.27008652687073,-0.36124086380004883,-0.1540822684764862,0.9148046970367432,-0.35879841446876526,0.14516706764698029,0.13977669179439545
58.370951890945435,-0.36126983165740967,-0.14609256386756897,0.9109540581703186,-0.3588380217552185,0.14517749845981598,0.13965000212192535
58.47229862213135,-0.36124783754348755,-0.15011516213417053,0.9187032580375671,-0.35887134075164795,0.14513073861598969,0.13957583904266357
58.57386088371277,-0.3652247190475464,-0.14605456590652466,0.9108677506446838,-0.35888800024986267,0.14525550603866577,0.13968321681022644
58.67500567436218,-0.3612458407878876,-0.15406376123428345,0.9109220504760742,-0.35893285274505615,0.14526399970054626,0.13954144716262817
58.775949478149414,-0.3652077317237854,-0.15005868673324585,0.914734423160553,-0.3589601516723633,0.14519183337688446,0.13952799141407013
58.87697911262512,-0.36521974205970764,-0.14607307314872742,0.9147503972053528,-0.35895416140556335,0.1450633704662323,0.13967841863632202
58.978116035461426,-0.36520272493362427,-0.15007716417312622,0.9186170101165771,-0.3589562773704529,0.14513759315013885,0.13979224860668182
59.07913064956665,-0.3652077317237854,-0.15005868673324585,0.914734423160553,-0.35898104310035706,0.14512060582637787,0.13981936872005463
59.18009853363037,-0.36124783754348755,-0.15011516213417053,0.9187032580375671,-0.35902658104896545,0.14527127146720886,0.1398269683122635
59.28113508224487,-0.3612528443336487,-0.15009668469429016,0.914820671081543,-0.3590432405471802,0.14523567259311676,0.13977839052677155
59.382837533950806,-0.3612458407878876,-0.15406376123428345,0.9109220504760742,-0.3591099679470062,0.14519049227237701,0.13963793218135834
59.48375582695007,-0.3612598478794098,-0.1461295783519745,0.9187192916870117,-0.35913780331611633,0.14524812996387482,0.1396736204624176
59.58512997627258,-0.3612528443336487,-0.15009668469429016,0.914820671081543,-0.3591597080230713,0.14525748789310455,0.1396310180425644
59.68610429763794,-0.3612528443336487,-0.15009668469429016,0.914820671081543,-0.35913771390914917,0.14507824182510376,0.13975434005260468
59.7872269153595,-0.3652007281780243,-0.15402576327323914,0.9108357429504395,-0.35915061831474304,0.14505930244922638,0.13959024846553802
59.8882040977478,-0.3691626489162445,-0.15002065896987915,0.9146481156349182,-0.3594193458557129,0.14548301696777344,0.13908739387989044
59.98928451538086,-0.3612748384475708,-0.1460740864276886,0.9070714712142944,-0.35942578315734863,0.14543037116527557,0.13901321589946747
60.09045433998108,-0.36126282811164856,-0.15005967020988464,0.9070554375648499,-0.3594263195991516,0.1454499512910843,0.139034703373909
60.1911826133728,-0.3612648546695709,-0.14611107110977173,0.9148367047309875,-0.35942313075065613,0.14540009200572968,0.13906706869602203
60.29204034805298,-0.36126983165740967,-0.14609256386756897,0.9109540581703186,-0.359404981136322,0.14542770385742188,0.13913585245609283
60.39312028884888,-0.3652147352695465,-0.14609158039093018,0.918632984161377,-0.35941141843795776,0.1454295516014099,0.1391306072473526
60.494033336639404,-0.3612748384475708,-0.1460740864276886,0.9070714712142944,-0.35941648483276367,0.14542391896247864,0.1391787976026535
60.59534668922424,-0.36520272493362427,-0.15007716417312622,0.9186170101165771,-0.3594051003456116,0.14527615904808044,0.1391979455947876
60.69622492790222,-0.3612648546695709,-0.14611107110977173,0.9148367047309875,-0.3593953549861908,0.14539459347724915,0.1393750011920929
60.79719018936157,-0.36126983165740967,-0.14609256386756897,0.9109540581703186,-0.3594302535057068,0.14543399214744568,0.13921669125556946
60.89811420440674,-0.3691626489162445,-0.15002065896987915,0.9146481156349182,-0.35946232080459595,0.1452363282442093,0.13902099430561066
60.999064683914185,-0.3612458407878876,-0.15406376123428345,0.9109220504760742,-0.35949116945266724,0.14520934224128723,0.13892263174057007
61.10015511512756,-0.36519575119018555,-0.1540442705154419,0.9147183895111084,-0.359476238489151,0.14532330632209778,0.13907045125961304
61.201157569885254,-0.36124783754348755,-0.15011516213417053,0.9187032580375671,-0.35949453711509705,0.14536798000335693,0.13902021944522858
61.30223751068115,-0.3573099374771118,-0.14614906907081604,0.9149230122566223,-0.35947105288505554,0.14547403156757355,0.13912206888198853
61.40296530723572,-0.36124783754348755,-0.15011516213417053,0.9187032580375671,-0.3594847023487091,0.14542610943317413,0.13901838660240173
61.503944873809814,-0.3612648546695709,-0.14611107110977173,0.9148367047309875,-0.35973554849624634,0.14560960233211517,0.1386062204837799
61.60627055168152,-0.3652297258377075,-0.1460360884666443,0.9069851636886597,-0.35982587933540344,0.14588722586631775,0.13835406303405762
61.70735478401184,-0.3612648546695709,-0.14611107110977173,0.9148367047309875,-0.35979804396629333,0.14586909115314484,0.1384185254573822
61.80823636054993,-0.3573199212551117,-0.1461120843887329,0.9071577787399292,-0.3598081171512604,0.14578530192375183,0.13831572234630585
61.908987522125244,-0.36521974205970764,-0.14607307314872742,0.9147503972053528,-0.35982996225357056,0.14585816860198975,0.1382153183221817
62.00975847244263,-0.3691696524620056,-0.14605355262756348,0.9185466766357422,-0.359819233417511,0.14594613015651703,0.13815967738628387
62.11065173149109,-0.3652147352695465,-0.14609158039093018,0.918632984161377,-0.35978859663009644,0.1458074301481247,0.13804659247398376
62.211714029312134,-0.3652077317237854,-0.15005868673324585,0.914734423160553,-0.3598313629627228,0.14595194160938263,0.13797418773174286
62.312705755233765,-0.3652317523956299,-0.14208745956420898,0.9147663712501526,-0.35985007882118225,0.1459621787071228,0.13784122467041016
62.41381025314331,-0.3573049306869507,-0.1461675763130188,0.9188055992126465,-0.3598405420780182,0.14594529569149017,0.13770036399364471
62.51473116874695,-0.3652147352695465,-0.14609158039093018,0.918632984161377,-0.359836608171463,0.14584366977214813,0.1376120150089264
62.61553716659546,-0.36522674560546875,-0.14210596680641174,0.9186489582061768,-0.3598230481147766,0.14593011140823364,0.13760459423065186
62.71650981903076,-0.36523672938346863,-0.14206895232200623,0.9108837246894836,-0.35981136560440063,0.1461201012134552,0.13754253089427948
62.817763805389404,-0.36127686500549316,-0.1421254575252533,0.9148526787757874,-0.35979777574539185,0.14618152379989624,0.13752244412899017
62.918633460998535,-0.3652147352695465,-0.14609158039093018,0.918632984161377,-0.3598209023475647,0.146292582154274,0.13736356794834137
63.019235610961914,-0.3691696524620056,-0.14605355262756348,0.9185466766357422,-0.35980138182640076,0.14629924297332764,0.1374872922897339
63.12006211280823,-0.36523672938346863,-0.14206895232200623,0.9108837246894836,-0.35977664589881897,0.14622478187084198,0.13745546340942383
63.22121071815491,-0.3652317523956299,-0.14208745956420898,0.9147663712501526,-0.35978418588638306,0.14629322290420532,0.13736049830913544
63.32224798202515,-0.3652147352695465,-0.14609158039093018,0.918632984161377,-0.35978785157203674,0.1461305469274521,0.13725998997688293
63.42319893836975,-0.3612648546695709,-0.14611107110977173,0.9148367047309875,-0.35980772972106934,0.1462629735469818,0.137149840593338
63.52422571182251,-0.3652317523956299,-0.14208745956420898,0.9147663712501526,-0.3598081171512604,0.14629368484020233,0.1371595710515976
63.62576508522034,-0.36127185821533203,-0.14214396476745605,0.9187352657318115,-0.3598167598247528,0.14616599678993225,0.13709360361099243
63.72678828239441,-0.3612648546695709,-0.14611107110977173,0.9148367047309875,-0.3597920536994934,0.14615364372730255,0.1371893286705017
63.827685594558716,-0.36127185821533203,-0.14214396476745605,0.9187352657318115,-0.3598102629184723,0.14603601396083832,0.13703791797161102
63.92897391319275,-0.3612648546695709,-0.14611107110977173,0.9148367047309875,-0.3597976863384247,0.14609143137931824,0.13711851835250854
64.03031039237976,-0.3652147352695465,-0.14609158039093018,0.918632984161377,-0.3598158657550812,0.14606596529483795,0.1370333731174469
64.13108849525452,-0.3612648546695709,-0.14611107110977173,0.9148367047309875,-0.35982823371887207,0.1461595594882965,0.13695737719535828
64.23178124427795,-0.3652317523956299,-0.14208745956420898,0.9147663712501526,-0.3598175644874573,0.14638248085975647,0.13717055320739746
64.33271527290344,-0.3652317523956299,-0.14208745956420898,0.9147663712501526,-0.35981303453445435,0.14647386968135834,0.13722564280033112
64.43411874771118,-0.3652317523956299,-0.14208745956420898,0.9147663712501526,-0.3598145842552185,0.14630593359470367,0.13719984889030457
64.53521919250488,-0.3652097284793854,-0.14611008763313293,0.9225155711174011,-0.35979652404785156,0.14632850885391235,0.1372889280319214
64.63646578788757,-0.3573199212551117,-0.1461120843887329,0.9071577787399292,-0.3598232865333557,0.14628110826015472,0.13720263540744781
64.73715567588806,-0.36127686500549316,-0.1421254575252533,0.9148526787757874,-0.35984230041503906,0.14626245200634003,0.13708344101905823
64.83805632591248,-0.3612678349018097,-0.15004116296768188,0.9031728506088257,-0.35984739661216736,0.1463649868965149,0.13706760108470917
64.93902015686035,-0.3652317523956299,-0.14208745956420898,0.9147663712501526,-0.3598337471485138,0.1463000625371933,0.13707977533340454
65.0402045249939,-0.36127686500549316,-0.1421254575252533,0.9148526787757874,-0.3598267436027527,0.14645305275917053,0.1372186243534088
65.1414246559143,-0.36127185821533203,-0.14214396476745605,0.9187352657318115,-0.35983967781066895,0.1463194638490677,0.1371653974056244
65.24268388748169,-0.36127185821533203,-0.14214396476745605,0.9187352657318115,-0.35986441373825073,0.1461900919675827,0.13703598082065582
65.3438127040863,-0.36919164657592773,-0.14203095436096191,0.9107974767684937,-0.35986846685409546,0.14632858335971832,0.1371038258075714
65.44491171836853,-0.3691696524620056,-0.14605355262756348,0.9185466766357422,-0.35988837480545044,0.14619193971157074,0.13703833520412445
65.54600524902344,-0.36919164657592773,-0.14203095436096191,0.9107974767684937,-0.3599155843257904,0.14622104167938232,0.13697998225688934
65.64753484725952,-0.36918166279792786,-0.14206793904304504,0.9185627102851868,-0.35990020632743835,0.14602665603160858,0.13704079389572144
65.74863767623901,-0.36127686500549316,-0.1421254575252533,0.9148526787757874,-0.35992926359176636,0.14611239731311798,0.13700783252716064
65.84976863861084,-0.36127984523773193,-0.14605557918548584,0.9031888842582703,-0.3599521517753601,0.1459604799747467,0.13699617981910706
65.95093655586243,-0.36523672938346863,-0.14206895232200623,0.9108837246894836,-0.3599563539028168,0.14610162377357483,0.13716962933540344
66.05209445953369,-0.3652217388153076,-0.1421244740486145,0.9225315451622009,-0.35998207330703735,0.1462266743183136,0.13707856833934784
66.15331506729126,-0.36522674560546875,-0.14210596680641174,0.9186489582061768,-0.35998961329460144,0.14608488976955414,0.13704174757003784
66.25433206558228,-0.3652317523956299,-0.14208745956420898,0.9147663712501526,-0.3600093722343445,0.14615954458713531,0.13696278631687164
66.35528993606567,-0.3691646456718445,-0.14607205986976624,0.9224292635917664,-0.3600088357925415,0.14611782133579254,0.13699033856391907
66.45597076416016,-0.3652317523956299,-0.14208745956420898,0.9147663712501526,-0.36003199219703674,0.1461222916841507,0.1368931233882904
66.55655241012573,-0.36919164657592773,-0.14203095436096191,0.9107974767684937,-0.3600237965583801,0.14626967906951904,0.13692708313465118
66.65747570991516,-0.36127686500549316,-0.1421254575252533,0.9148526787757874,-0.3600209057331085,0.14632725715637207,0.13686706125736237
66.7581934928894,-0.36919164657592773,-0.14203095436096191,0.9107974767684937,-0.36002781987190247,0.14657290279865265,0.1369270384311676
66.8590178489685,-0.3612648546695709,-0.14611107110977173,0.9148367047309875,-0.36004021763801575,0.1465296447277069,0.13690520823001862
66.96020460128784,-0.3652147352695465,-0.14609158039093018,0.918632984161377,-0.36006149649620056,0.14664269983768463,0.1368066370487213
67.06141781806946,-0.3652247190475464,-0.14605456590652466,0.9108677506446838,-0.36005645990371704,0.14652453362941742,0.13679517805576324
67.16242980957031,-0.3652097284793854,-0.14611008763313293,0.9225155711174011,-0.36003991961479187,0.14650443196296692,0.13686314225196838
67.26352286338806,-0.3652317523956299,-0.14208745956420898,0.9147663712501526,-0.36004966497421265,0.14646174013614655,0.1368429958820343
67.36451458930969,-0.36523672938346863,-0.14206895232200623,0.9108837246894836,-0.3600538372993469,0.1464039534330368,0.1368858963251114
67.46541285514832,-0.3612818419933319,-0.14210695028305054,0.9109700322151184,-0.36006665229797363,0.14633868634700775,0.1369130164384842
67.56634879112244,-0.36127686500549316,-0.1421254575252533,0.9148526787757874,-0.3600868880748749,0.14633828401565552,0.13694651424884796
67.66787719726562,-0.36127185821533203,-0.14214396476745605,0.9187352657318115,-0.3601067364215851,0.1462082713842392,0.13690325617790222
67.76883387565613,-0.36127185821533203,-0.14214396476745605,0.9187352657318115,-0.36013418436050415,0.146328866481781,0.13687466084957123
67.86948585510254,-0.3652247190475464,-0.14605456590652466,0.9108677506446838,-0.36013731360435486,0.14638663828372955,0.13693654537200928
67.97031593322754,-0.3573269248008728,-0.14214494824409485,0.9110563397407532,-0.3601530194282532,0.14636586606502533,0.1368432641029358
68.07168745994568,-0.369186669588089,-0.14204946160316467,0.9146801233291626,-0.36018556356430054,0.14634476602077484,0.13676413893699646
68.1731264591217,-0.36523672938346863,-0.14206895232200623,0.9108837246894836,-0.3601958155632019,0.14642591774463654,0.1368246227502823
68.27420282363892,-0.3652217388153076,-0.1421244740486145,0.9225315451622009,-0.36022335290908813,0.14675463736057281,0.13686807453632355
68.37521362304688,-0.3652217388153076,-0.1421244740486145,0.9225315451622009,-0.3602355718612671,0.1465279757976532,0.13681216537952423
68.4762270450592,-0.36522674560546875,-0.14210596680641174,0.9186489582061768,-0.36021682620048523,0.14635032415390015,0.1369011402130127
68.57801032066345,-0.369186669588089,-0.14204946160316467,0.9146801233291626,-0.3602530360221863,0.14648321270942688,0.1368914097547531
68.67923259735107,-0.3652317523956299,-0.14208745956420898,0.9147663712501526,-0.3602578341960907,0.1464400738477707,0.13692158460617065
68.78018069267273,-0.36126983165740967,-0.14609256386756897,0.9109540581703186,-0.360268771648407,0.1463097482919693,0.13692088425159454
68.88139081001282,-0.36522674560546875,-0.14210596680641174,0.9186489582061768,-0.36030659079551697,0.14641855657100677,0.13684965670108795
68.98260760307312,-0.3612818419933319,-0.14210695028305054,0.9109700322151184,-0.36032313108444214,0.14632362127304077,0.13680529594421387
69.08379125595093,-0.3612818419933319,-0.14210695028305054,0.9109700322151184,-0.360333114862442,0.14638836681842804,0.13684117794036865
69.18481397628784,-0.36127686500549316,-0.1421254575252533,0.9148526787757874,-0.36036619544029236,0.14627991616725922,0.1367206871509552
69.28551602363586,-0.3652217388153076,-0.1421244740486145,0.9225315451622009,-0.3603774905204773,0.14618226885795593,0.13661672174930573
69.38602113723755,-0.3652317523956299,-0.14208745956420898,0.9147663712501526,-0.36039069294929504,0.1462259739637375,0.13661861419677734
69.48668575286865,-0.3612648546695709,-0.14611107110977173,0.9148367047309875,-0.36040398478507996,0.14635874330997467,0.13665655255317688
69.58733820915222,-0.36523672938346863,-0.14206895232200623,0.9108837246894836,-0.360405296087265,0.14642685651779175,0.13666751980781555
69.68838667869568,-0.36522674560546875,-0.14210596680641174,0.9186489582061768,-0.36042699217796326,0.14640428125858307,0.1366538405418396
69.78961133956909,-0.36522674560546875,-0.14210596680641174,0.9186489582061768,-0.36044153571128845,0.14650075137615204,0.13669368624687195
69.89090085029602,-0.36523371934890747,-0.13813886046409607,0.9225475788116455,-0.3604409992694855,0.14648917317390442,0.13670846819877625
69.99196910858154,-0.3573269248008728,-0.14214494824409485,0.9110563397407532,-0.3604487478733063,0.14636951684951782,0.13667991757392883
70.09313464164734,-0.36127686500549316,-0.1421254575252533,0.9148526787757874,-0.360429048538208,0.14626465737819672,0.13681663572788239
70.19413828849792,-0.3652297258377075,-0.1460360884666443,0.9069851636886597,-0.36045581102371216,0.1463988721370697,0.13673532009124756
70.2950074672699,-0.3652317523956299,-0.14208745956420898,0.9147663712501526,-0.36045727133750916,0.1465919464826584,0.13677942752838135
70.39607357978821,-0.36127185821533203,-0.14214396476745605,0.9187352657318115,-0.3604637086391449,0.14662690460681915,0.13681623339653015
70.49711418151855,-0.3612818419933319,-0.14210695028305054,0.9109700322151184,-0.3604988157749176,0.14645127952098846,0.13657155632972717
70.59778118133545,-0.3652317523956299,-0.14208745956420898,0.9147663712501526,-0.3604898154735565,0.14657770097255707,0.13657590746879578
70.69885039329529,-0.36127185821533203,-0.14214396476745605,0.9187352657318115,-0.36048445105552673,0.1463632732629776,0.13652947545051575
70.79996013641357,-0.3573169410228729,-0.14218196272850037,0.9188215732574463,-0.36048316955566406,0.1463077813386917,0.13646572828292847
70.90107154846191,-0.3573099374771118,-0.14614906907081604,0.9149230122566223,-0.3604992628097534,0.14625751972198486,0.1363656371831894
71.0023467540741,-0.36127185821533203,-0.14214396476745605,0.9187352657318115,-0.3604831099510193,0.14661172032356262,0.13658322393894196
71.10352802276611,-0.3652317523956299,-0.14208745956420898,0.9147663712501526,-0.36046096682548523,0.1465841382741928,0.13666631281375885
71.20471382141113,-0.3652317523956299,-0.14208745956420898,0.9147663712501526,-0.3604815900325775,0.14654158055782318,0.13659818470478058
71.30581283569336,-0.36522674560546875,-0.14210596680641174,0.9186489582061768,-0.36048582196235657,0.1464657187461853,0.13659247756004333
71.40683007240295,-0.3612598478794098,-0.1461295783519745,0.9187192916870117,-0.3605039715766907,0.14644300937652588,0.13660027086734772
71.50774025917053,-0.36127185821533203,-0.14214396476745605,0.9187352657318115,-0.3605205714702606,0.14668668806552887,0.1366727501153946
71.6086323261261,-0.36522674560546875,-0.14210596680641174,0.9186489582061768,-0.36053067445755005,0.14658412337303162,0.13668015599250793
71.70983982086182,-0.36522674560546875,-0.14210596680641174,0.9186489582061768,-0.3605711758136749,0.14648424088954926,0.13643841445446014
71.81083154678345,-0.36127185821533203,-0.14214396476745605,0.9187352657318115,-0.36054474115371704,0.1463933140039444,0.13653773069381714
71.91201138496399,-0.36522674560546875,-0.14210596680641174,0.9186489582061768,-0.3605361878871918,0.14637789130210876,0.13664384186267853
72.0133535861969,-0.369186669588089,-0.14204946160316467,0.9146801233291626,-0.36055055260658264,0.14636126160621643,0.13658152520656586
72.1152114868164,-0.369186669588089,-0.14204946160316467,0.9146801233291626,-0.36055126786231995,0.14638260006904602,0.13658666610717773
72.21644306182861,-0.36523672938346863,-0.14206895232200623,0.9108837246894836,-0.3605616092681885,0.1463911533355713,0.13660286366939545
72.31766057014465,-0.36127185821533203,-0.14214396476745605,0.9187352657318115,-0.36057645082473755,0.14648817479610443,0.1366043984889984
72.41873502731323,-0.36521974205970764,-0.14607307314872742,0.9147503972053528,-0.3605782985687256,0.14643807709217072,0.13664518296718597
72.51974892616272,-0.36127686500549316,-0.1421254575252533,0.9148526787757874,-0.3605928122997284,0.14643456041812897,0.13663868606090546
72.62093997001648,-0.36522674560546875,-0.14210596680641174,0.9186489582061768,-0.3606054484844208,0.14650976657867432,0.13664427399635315
72.72261047363281,-0.36522674560546875,-0.14210596680641174,0.9186489582061768,-0.360626220703125,0.14651747047901154,0.1366177797317505
72.82334637641907,-0.3612668514251709,-0.1421624720096588,0.9226178526878357,-0.3606342375278473,0.14644135534763336,0.1365634948015213
72.9238669872284,-0.36127686500549316,-0.1421254575252533,0.9148526787757874,-0.36065688729286194,0.14647671580314636,0.13653966784477234
73.02459812164307,-0.36521974205970764,-0.14607307314872742,0.9147503972053528,-0.3606626093387604,0.14645667374134064,0.13659341633319855
73.12556219100952,-0.36127185821533203,-0.14214396476745605,0.9187352657318115,-0.3606681525707245,0.1465488076210022,0.1366489678621292
73.22626280784607,-0.36918166279792786,-0.14206793904304504,0.9185627102851868,-0.36066681146621704,0.1465751826763153,0.13668030500411987
73.32703256607056,-0.3652317523956299,-0.14208745956420898,0.9147663712501526,-0.3606741428375244,0.14646750688552856,0.13663998246192932
73.42810463905334,-0.3572949171066284,-0.14620456099510193,0.9265707731246948,-0.36069416999816895,0.14642906188964844,0.1365726888179779
73.52931475639343,-0.35732194781303406,-0.1421634554862976,0.9149389863014221,-0.360707551240921,0.14633841812610626,0.13651882112026215
73.63040280342102,-0.3573169410228729,-0.14218196272850037,0.9188215732574463,-0.3607097268104553,0.1463494598865509,0.13651081919670105
73.73208546638489,-0.3612668514251709,-0.1421624720096588,0.9226178526878357,-0.36071664094924927,0.14636655151844025,0.13652317225933075
73.83289313316345,-0.36522674560546875,-0.14210596680641174,0.9186489582061768,-0.36072954535484314,0.14640091359615326,0.13650630414485931
73.93393206596375,-0.3691716492176056,-0.14210495352745056,0.9263278841972351,-0.3607345521450043,0.14654339849948883,0.13660791516304016
74.035165309906,-0.3612648546695709,-0.14611107110977173,0.9148367047309875,-0.36075058579444885,0.14655926823616028,0.13653947412967682
74.13645553588867,-0.36127185821533203,-0.14214396476745605,0.9187352657318115,-0.36075350642204285,0.1466173529624939,0.13664259016513824
74.23731446266174,-0.36127686500549316,-0.1421254575252533,0.9148526787757874,-0.36076629161834717,0.14650031924247742,0.13656406104564667
74.33796000480652,-0.36521974205970764,-0.14607307314872742,0.9147503972053528,-0.3607639670372009,0.14648666977882385,0.13661721348762512
74.43849062919617,-0.36523672938346863,-0.14206895232200623,0.9108837246894836,-0.3607751131057739,0.1464468538761139,0.13658078014850616
74.53899502754211,-0.3652317523956299,-0.14208745956420898,0.9147663712501526,-0.36077699065208435,0.14643308520317078,0.1366097778081894
74.63948607444763,-0.36917465925216675,-0.1460350751876831,0.914664089679718,-0.36077043414115906,0.1463945358991623,0.1365126222372055
74.74025321006775,-0.36126983165740967,-0.14609256386756897,0.9109540581703186,-0.36078107357025146,0.146333709359169,0.13647441565990448
74.84075999259949,-0.369186669588089,-0.14204946160316467,0.9146801233291626,-0.3608096241950989,0.14652150869369507,0.13631710410118103
74.94174575805664,-0.369186669588089,-0.14204946160316467,0.9146801233291626,-0.3607805371284485,0.1466130167245865,0.13632123172283173
75.04298806190491,-0.3612668514251709,-0.1421624720096588,0.9226178526878357,-0.36077389121055603,0.1465071141719818,0.13632921874523163
75.1442039012909,-0.36522674560546875,-0.14210596680641174,0.9186489582061768,-0.3607533276081085,0.1464141309261322,0.1363237053155899
75.24542450904846,-0.36523672938346863,-0.14206895232200623,0.9108837246894836,-0.3607519567012787,0.14638414978981018,0.1362529695034027
75.34662342071533,-0.36127686500549316,-0.1421254575252533,0.9148526787757874,-0.3607321083545685,0.14645057916641235,0.13638772070407867
75.44769811630249,-0.3612668514251709,-0.1421624720096588,0.9226178526878357,-0.3607310652732849,0.14630667865276337,0.1363278329372406
75.54866242408752,-0.36127185821533203,-0.14214396476745605,0.9187352657318115,-0.36074259877204895,0.14633165299892426,0.13631463050842285
75.64955997467041,-0.36918166279792786,-0.14206793904304504,0.9185627102851868,-0.3607618510723114,0.14657101035118103,0.13636764883995056
75.7509138584137,-0.3573269248008728,-0.14214494824409485,0.9110563397407532,-0.36077454686164856,0.14644096791744232,0.1362215280532837
75.85184693336487,-0.3652217388153076,-0.1421244740486145,0.9225315451622009,-0.36077287793159485,0.1465950757265091,0.13629408180713654
75.95263528823853,-0.3612668514251709,-0.1421624720096588,0.9226178526878357,-0.360769122838974,0.14646902680397034,0.13629570603370667
76.05359935760498,-0.3652317523956299,-0.14208745956420898,0.9147663712501526,-0.3607788681983948,0.1465265303850174,0.13626906275749207
76.15485072135925,-0.36127686500549316,-0.1421254575252533,0.9148526787757874,-0.3607914447784424,0.14642831683158875,0.1362423598766327
76.2560772895813,-0.36523672938346863,-0.14206895232200623,0.9108837246894836,-0.36077216267585754,0.1464628279209137,0.1363631784915924
76.357168674469,-0.36127185821533203,-0.14214396476745605,0.9187352657318115,-0.3607587218284607,0.14648853242397308,0.13648399710655212
76.45823788642883,-0.3652317523956299,-0.14208745956420898,0.9147663712501526,-0.360776424407959,0.14649084210395813,0.13645535707473755
76.55925703048706,-0.3612668514251709,-0.1421624720096588,0.9226178526878357,-0.3608095347881317,0.14647573232650757,0.13637273013591766
76.66023230552673,-0.36522674560546875,-0.14210596680641174,0.9186489582061768,-0.3608250617980957,0.14653003215789795,0.13633908331394196
76.76155185699463,-0.36522674560546875,-0.14210596680641174,0.9186489582061768,-0.3608461320400238,0.146467387676239,0.13631203770637512
76.86244177818298,-0.3652317523956299,-0.14208745956420898,0.9147663712501526,-0.3608669340610504,0.14648382365703583,0.1362837851047516
76.96342992782593,-0.36523672938346863,-0.14206895232200623,0.9108837246894836,-0.36087602376937866,0.14655382931232452,0.13636526465415955
77.06450510025024,-0.369186669588089,-0.14204946160316467,0.9146801233291626,-0.36086827516555786,0.14643524587154388,0.13640828430652618
77.16565299034119,-0.36522674560546875,-0.14210596680641174,0.9186489582061768,-0.3608921766281128,0.14650800824165344,0.13633139431476593
77.26673650741577,-0.36917465925216675,-0.1460350751876831,0.914664089679718,-0.36091452836990356,0.14652884006500244,0.13631939888000488
77.36766147613525,-0.36918166279792786,-0.14206793904304504,0.9185627102851868,-0.36092543601989746,0.1464536190032959,0.1362622231245041
77.46853017807007,-0.36127185821533203,-0.14214396476745605,0.9187352657318115,-0.3609170913696289,0.14611072838306427,0.13625136017799377
77.56943678855896,-0.3652317523956299,-0.14208745956420898,0.9147663712501526,-0.3609161078929901,0.14607161283493042,0.1362438201904297
77.67058086395264,-0.36127686500549316,-0.1421254575252533,0.9148526787757874,-0.3609183728694916,0.14617326855659485,0.13631810247898102
77.77200722694397,-0.369186669588089,-0.14204946160316467,0.9146801233291626,-0.3609207570552826,0.14624373614788055,0.13635939359664917
77.87307333946228,-0.36522674560546875,-0.14210596680641174,0.9186489582061768,-0.3609214425086975,0.14621005952358246,0.13632456958293915
77.97409701347351,-0.3652317523956299,-0.14208745956420898,0.9147663712501526,-0.36093923449516296,0.14640602469444275,0.13638585805892944
78.07517957687378,-0.3612818419933319,-0.14210695028305054,0.9109700322151184,-0.3609428107738495,0.14641542732715607,0.1364593654870987
78.17610597610474,-0.36127185821533203,-0.14214396476745605,0.9187352657318115,-0.36094748973846436,0.1463637501001358,0.13638631999492645
78.2769889831543,-0.36522674560546875,-0.14210596680641174,0.9186489582061768,-0.3609560430049896,0.1464487612247467,0.1363280713558197
78.37785816192627,-0.37311452627182007,-0.14605256915092468,0.9262255430221558,-0.3609982430934906,0.14664287865161896,0.1363145112991333
78.47876763343811,-0.3573269248008728,-0.14214494824409485,0.9110563397407532,-0.3610365688800812,0.1463942974805832,0.13621586561203003
78.57970547676086,-0.36523672938346863,-0.14206895232200623,0.9108837246894836,-0.36103177070617676,0.1463840901851654,0.13618546724319458
78.68063497543335,-0.3652317523956299,-0.14208745956420898,0.9147663712501526,-0.36103555560112,0.14659850299358368,0.13623255491256714
78.78291749954224,-0.36919164657592773,-0.14203095436096191,0.9107974767684937,-0.36115559935569763,0.14668652415275574,0.13602377474308014
78.88402581214905,-0.365363746881485,-0.09824586659669876,0.9149423837661743,-0.36440417170524597,0.14893177151679993,0.13010673224925995
78.98516583442688,-0.36144182085990906,-0.0823969617486,0.9267404675483704,-0.37646034359931946,0.1564822643995285,0.10777448117733002
79.08632469177246,-0.36538973450660706,-0.08632607012987137,0.9227555990219116,-0.37577664852142334,0.15628433227539062,0.10838966071605682
79.18746590614319,-0.3614538311958313,-0.07841136306524277,0.9267564415931702,-0.3750966191291809,0.15628229081630707,0.10811588913202286
79.28847336769104,-0.3614298403263092,-0.08638256043195724,0.9267244338989258,-0.37476637959480286,0.1563827246427536,0.10796701163053513
79.38952612876892,-0.36539173126220703,-0.08237747102975845,0.9305368065834045,-0.3746482729911804,0.15666626393795013,0.10808078199625015
79.49058198928833,-0.3614608645439148,-0.0744442567229271,0.9306551218032837,-0.37458494305610657,0.15661810338497162,0.10788364708423615
79.59175443649292,-0.3654327094554901,-0.07040216028690338,0.9267021417617798,-0.3745987117290497,0.15657103061676025,0.10770256817340851
79.692307472229,-0.36937564611434937,-0.07434976100921631,0.9265998601913452,-0.3745909035205841,0.15648508071899414,0.10771717131137848
79.79302954673767,-0.36936864256858826,-0.07831685990095139,0.9227012991905212,-0.3746187388896942,0.15642724931240082,0.10760712623596191
79.89417243003845,-0.365408718585968,-0.07837336510419846,0.9266701340675354,-0.37459346652030945,0.15647795796394348,0.10780899971723557
79.9951684474945,-0.3693516254425049,-0.08232095092535019,0.9265678524971008,-0.3745906352996826,0.15649761259555817,0.10786701738834381
80.09603500366211,-0.36146584153175354,-0.07442575693130493,0.9267724752426147,-0.374578058719635,0.15655305981636047,0.10799398273229599
80.19689464569092,-0.3654037415981293,-0.07839185744524002,0.9305527806282043,-0.37459832429885864,0.15658526122570038,0.1078864261507988
80.29793000221252,-0.36540672183036804,-0.08232196420431137,0.9188889861106873,-0.37457001209259033,0.15664206445217133,0.10806392878293991
80.39882969856262,-0.369356632232666,-0.08230245858430862,0.9226852655410767,-0.37458232045173645,0.15664313733577728,0.1080455556511879
80.4996485710144,-0.365408718585968,-0.07837336510419846,0.9266701340675354,-0.3745864927768707,0.1565895527601242,0.10796062648296356
80.60063672065735,-0.36543771624565125,-0.07038366049528122,0.9228195548057556,-0.374624639749527,0.15680402517318726,0.10781560838222504
80.70159459114075,-0.3654017150402069,-0.08234047144651413,0.9227715730667114,-0.37459322810173035,0.15657047927379608,0.10791332274675369
80.8031759262085,-0.3614708483219147,-0.07440725713968277,0.9228898882865906,-0.374615877866745,0.15649199485778809,0.1077246442437172
80.90417265892029,-0.3654037415981293,-0.07839185744524002,0.9305527806282043,-0.37462180852890015,0.1564992368221283,0.10768918693065643
81.00517296791077,-0.365408718585968,-0.07837336510419846,0.9266701340675354,-0.3746236562728882,0.1566774994134903,0.10773658007383347
81.10630679130554,-0.3654257357120514,-0.07436925917863846,0.9228035807609558,-0.37461546063423157,0.1565345674753189,0.10773587971925735
81.20698952674866,-0.3693806529045105,-0.07433126121759415,0.922717273235321,-0.3746180832386017,0.15642644464969635,0.10769543051719666
81.30754041671753,-0.36146584153175354,-0.07442575693130493,0.9267724752426147,-0.37460002303123474,0.1566028743982315,0.10785450041294098
81.40805673599243,-0.3614538311958313,-0.07841136306524277,0.9267564415931702,-0.37458327412605286,0.1564277559518814,0.10785441100597382
81.50875425338745,-0.3653967082500458,-0.0823589637875557,0.9266541600227356,-0.37458062171936035,0.15646888315677643,0.10789281874895096
81.60942077636719,-0.36146584153175354,-0.07442575693130493,0.9267724752426147,-0.3746028244495392,0.15663732588291168,0.10779591649770737
81.71004509925842,-0.3614608645439148,-0.0744442567229271,0.9306551218032837,-0.3746092617511749,0.156706303358078,0.1077319011092186
81.8115782737732,-0.36933964490890503,-0.08630654960870743,0.926551878452301,-0.37455397844314575,0.15658289194107056,0.10796921700239182
81.9127287864685,-0.36146584153175354,-0.07442575693130493,0.9267724752426147,-0.3745620846748352,0.15663571655750275,0.10789388418197632
82.01364374160767,-0.3654187321662903,-0.07833636552095413,0.9189049601554871,-0.3745500147342682,0.15677428245544434,0.10796377807855606
82.11439871788025,-0.3654327094554901,-0.07040216028690338,0.9267021417617798,-0.3745482265949249,0.15677377581596375,0.10797808319330215
82.21505856513977,-0.3693636357784271,-0.07833536714315414,0.9265838861465454,-0.3745843470096588,0.15681421756744385,0.10784785449504852
82.31571221351624,-0.3614468276500702,-0.08237846940755844,0.9228578805923462,-0.3745918273925781,0.15671612322330475,0.10782786458730698
82.41630554199219,-0.3653967082500458,-0.0823589637875557,0.9266541600227356,-0.3745778799057007,0.15657922625541687,0.10785827785730362
82.51686763763428,-0.36542072892189026,-0.07438775897026062,0.92668616771698,-0.3745821714401245,0.15664763748645782,0.10793814063072205
82.61744022369385,-0.35746994614601135,-0.08643906563520432,0.9306933879852295,-0.3745723068714142,0.1564207524061203,0.10792113095521927
82.71824860572815,-0.36541372537612915,-0.0783548578619957,0.9227875471115112,-0.374565988779068,0.1563747227191925,0.10800163447856903
82.81965804100037,-0.3653847277164459,-0.08634456247091293,0.9266381859779358,-0.37455981969833374,0.1564006805419922,0.10805436223745346
82.92049646377563,-0.36539173126220703,-0.08237747102975845,0.9305368065834045,-0.3745590150356293,0.15632903575897217,0.1081296056509018
83.02131247520447,-0.3574989140033722,-0.07844936102628708,0.9268427491188049,-0.37459129095077515,0.1564500480890274,0.10800369083881378
83.12223958969116,-0.369343638420105,-0.07840936630964279,0.9421142935752869,-0.37457552552223206,0.15660347044467926,0.10815351456403732
83.2229552268982,-0.36145883798599243,-0.07839285582304001,0.922873854637146,-0.37461456656455994,0.15669773519039154,0.10805300623178482
83.32354664802551,-0.3653967082500458,-0.0823589637875557,0.9266541600227356,-0.3746601343154907,0.15647003054618835,0.10780346393585205
83.42398357391357,-0.36539173126220703,-0.08237747102975845,0.9305368065834045,-0.3746762275695801,0.1564588099718094,0.10774365067481995
83.52472829818726,-0.36144885420799255,-0.07842985540628433,0.9306390881538391,-0.3746834397315979,0.15659908950328827,0.10778133571147919
83.62571501731873,-0.35749393701553345,-0.07846786826848984,0.9307253956794739,-0.3746944069862366,0.15654680132865906,0.10779217630624771
83.72665858268738,-0.35747992992401123,-0.08640206605195999,0.9229281544685364,-0.37468579411506653,0.1564999371767044,0.10790359973907471
83.82821369171143,-0.369356632232666,-0.08230245858430862,0.9226852655410767,-0.37470299005508423,0.15659724175930023,0.10784191638231277
83.92926740646362,-0.3575209379196167,-0.07442676275968552,0.9190936088562012,-0.37473711371421814,0.15662062168121338,0.10769490152597427
84.03031396865845,-0.3654157519340515,-0.07440625876188278,0.9305688142776489,-0.3747698664665222,0.15642231702804565,0.10748444497585297
84.1311719417572,-0.3614828288555145,-0.07042165845632553,0.9229058623313904,-0.37474969029426575,0.1565031260251999,0.10763659328222275
84.23191213607788,-0.36937564611434937,-0.07434976100921631,0.9265998601913452,-0.3747332990169525,0.15664595365524292,0.1077718660235405
84.33260345458984,-0.36145883798599243,-0.07839285582304001,0.922873854637146,-0.3747272491455078,0.1566154509782791,0.10780436545610428
84.43360185623169,-0.36144182085990906,-0.0823969617486,0.9267404675483704,-0.3747550845146179,0.15661047399044037,0.10770536214113235
84.53465867042542,-0.36542072892189026,-0.07438775897026062,0.92668616771698,-0.3747221529483795,0.15648049116134644,0.10786193609237671
84.63564419746399,-0.36537474393844604,-0.08638156205415726,0.9344034194946289,-0.3747730255126953,0.1565002202987671,0.10761766880750656
84.73612952232361,-0.36146584153175354,-0.07442575693130493,0.9267724752426147,-0.374782532453537,0.15639019012451172,0.10763310641050339
84.83698654174805,-0.369356632232666,-0.08230245858430862,0.9226852655410767,-0.3747561573982239,0.15658263862133026,0.10785051435232162
84.93795919418335,-0.36539173126220703,-0.08237747102975845,0.9305368065834045,-0.3747640550136566,0.156830295920372,0.10789330303668976
85.03865671157837,-0.35749393701553345,-0.07846786826848984,0.9307253956794739,-0.37479686737060547,0.1565561294555664,0.10775095969438553
85.13940930366516,-0.3693586587905884,-0.07835385948419571,0.9304665327072144,-0.3748078942298889,0.15645265579223633,0.10767798870801926
85.2402892112732,-0.36144885420799255,-0.07842985540628433,0.9306390881538391,-0.37481823563575745,0.15656395256519318,0.107753686606884
85.34123635292053,-0.3653967082500458,-0.0823589637875557,0.9266541600227356,-0.374835342168808,0.15657708048820496,0.10773275792598724
85.44265103340149,-0.3693636357784271,-0.07833536714315414,0.9265838861465454,-0.37477344274520874,0.15647366642951965,0.1081009954214096
85.54372334480286,-0.35750094056129456,-0.07450076192617416,0.9346240162849426,-0.3747989535331726,0.15660089254379272,0.10802078992128372
85.64490365982056,-0.36939263343811035,-0.07034566253423691,0.9227332472801208,-0.37481215596199036,0.1564665585756302,0.1079828217625618
85.74596190452576,-0.36143484711647034,-0.08636406809091568,0.9228418469429016,-0.3748084306716919,0.15645678341388702,0.10812825709581375
85.84778261184692,-0.36541372537612915,-0.0783548578619957,0.9227875471115112,-0.37483975291252136,0.15658409893512726,0.10802101343870163
85.94874882698059,-0.3614778220653534,-0.07044015824794769,0.9267884492874146,-0.3748824894428253,0.15655727684497833,0.10790939629077911
86.04987168312073,-0.3653797507286072,-0.08636306971311569,0.9305208325386047,-0.3748587369918823,0.1566346138715744,0.10811207443475723
86.15085053443909,-0.3614468276500702,-0.08237846940755844,0.9228578805923462,-0.3748941123485565,0.15661437809467316,0.10796695947647095
86.25155591964722,-0.3654017150402069,-0.08234047144651413,0.9227715730667114,-0.374845951795578,0.1563882678747177,0.10821062326431274
86.35221743583679,-0.36146584153175354,-0.07442575693130493,0.9267724752426147,-0.3749060034751892,0.1563037782907486,0.10790900141000748
86.45286512374878,-0.36145883798599243,-0.07839285582304001,0.922873854637146,-0.37491706013679504,0.15616731345653534,0.10789545625448227
86.55348825454712,-0.3653867244720459,-0.08239596337080002,0.9344193935394287,-0.37493887543678284,0.15605080127716064,0.10780347883701324
86.65410661697388,-0.36937564611434937,-0.07434976100921631,0.9265998601913452,-0.3749426603317261,0.1562107503414154,0.10790934413671494
86.75483679771423,-0.3653967082500458,-0.0823589637875557,0.9266541600227356,-0.3749699592590332,0.156490758061409,0.10792529582977295
86.85634636878967,-0.3653847277164459,-0.08634456247091293,0.9266381859779358,-0.3749594986438751,0.15642234683036804,0.10801450908184052
86.95754909515381,-0.3614538311958313,-0.07841136306524277,0.9267564415931702,-0.37497788667678833,0.1565324068069458,0.10794036090373993
87.05873847007751,-0.3614608645439148,-0.0744442567229271,0.9306551218032837,-0.3749876618385315,0.15644270181655884,0.10784213989973068
87.15995168685913,-0.3614538311958313,-0.07841136306524277,0.9267564415931702,-0.3749948740005493,0.1563543826341629,0.1077713668346405
87.26110219955444,-0.3693516254425049,-0.08232095092535019,0.9265678524971008,-0.3749910891056061,0.15645253658294678,0.10781222581863403
87.3622055053711,-0.36539173126220703,-0.08237747102975845,0.9305368065834045,-0.3749806880950928,0.15631499886512756,0.10782339423894882
87.46314978599548,-0.36542072892189026,-0.07438775897026062,0.92668616771698,-0.3750189244747162,0.15654359757900238,0.10767277330160141
87.56380581855774,-0.3614538311958313,-0.07841136306524277,0.9267564415931702,-0.3750254213809967,0.15644899010658264,0.1076076552271843
87.66428875923157,-0.36542072892189026,-0.07438775897026062,0.92668616771698,-0.3749953508377075,0.15631256997585297,0.10780493915081024
87.76491618156433,-0.36539173126220703,-0.08237747102975845,0.9305368065834045,-0.3750151991844177,0.15659791231155396,0.1077842116355896
87.86594295501709,-0.3654307425022125,-0.0743507593870163,0.9189209938049316,-0.37505388259887695,0.15666675567626953,0.1076490506529808
87.96661329269409,-0.3654017150402069,-0.08234047144651413,0.9227715730667114,-0.37500953674316406,0.15657131373882294,0.10792775452136993
88.06732535362244,-0.3654257357120514,-0.07436925917863846,0.9228035807609558,-0.375032514333725,0.15656767785549164,0.1077786237001419
88.16810011863708,-0.3614708483219147,-0.07440725713968277,0.9228898882865906,-0.3750706911087036,0.1565222144126892,0.10764161497354507
88.26880383491516,-0.3614828288555145,-0.07042165845632553,0.9229058623313904,-0.3750908374786377,0.15654094517230988,0.10764104127883911
88.36942768096924,-0.36144182085990906,-0.0823969617486,0.9267404675483704,-0.37512272596359253,0.15672844648361206,0.10761823505163193
88.47056317329407,-0.36541372537612915,-0.0783548578619957,0.9227875471115112,-0.375131756067276,0.15679161250591278,0.10759979486465454
88.57139801979065,-0.36148783564567566,-0.07040315866470337,0.9190232753753662,-0.3751388490200043,0.156468003988266,0.10755236446857452
88.672048330307,-0.365408718585968,-0.07837336510419846,0.9266701340675354,-0.3751305043697357,0.15643371641635895,0.10764651000499725
88.77260828018188,-0.3654157519340515,-0.07440625876188278,0.9305688142776489,-0.3751669228076935,0.15674808621406555,0.1075315922498703
88.87359738349915,-0.36542072892189026,-0.07438775897026062,0.92668616771698,-0.3751507103443146,0.15682531893253326,0.10763423144817352
88.97420811653137,-0.36537474393844604,-0.08638156205415726,0.9344034194946289,-0.37516719102859497,0.15660542249679565,0.10752017796039581
89.07499408721924,-0.3535440266132355,-0.07848735898733139,0.9269290566444397,-0.37517333030700684,0.15658409893512726,0.10748840123414993
89.17630243301392,-0.3614608645439148,-0.0744442567229271,0.9306551218032837,-0.3752405345439911,0.15653270483016968,0.10712897777557373
89.27761650085449,-0.3614708483219147,-0.07440725713968277,0.9228898882865906,-0.37523937225341797,0.15659646689891815,0.10720529407262802
89.37889647483826,-0.365408718585968,-0.07837336510419846,0.9266701340675354,-0.37519749999046326,0.15661442279815674,0.10750182718038559
89.47981071472168,-0.3614538311958313,-0.07841136306524277,0.9267564415931702,-0.3752215802669525,0.15664689242839813,0.10737905651330948
89.58039927482605,-0.36540573835372925,-0.0744432657957077,0.9383339881896973,-0.37526193261146545,0.15679308772087097,0.1072278693318367
89.68124222755432,-0.3654257357120514,-0.07436925917863846,0.9228035807609558,-0.3752635717391968,0.15670420229434967,0.10724522173404694
89.78205299377441,-0.365408718585968,-0.07837336510419846,0.9266701340675354,-0.375274121761322,0.1567261815071106,0.10722590237855911
89.88343381881714,-0.36144885420799255,-0.07842985540628433,0.9306390881538391,-0.3752226233482361,0.15663282573223114,0.10757849365472794
89.98446297645569,-0.36146384477615356,-0.07837436348199844,0.9189912676811218,-0.3752751350402832,0.15666940808296204,0.10733892768621445
90.08510088920593,-0.3654157519340515,-0.07440625876188278,0.9305688142776489,-0.3752843737602234,0.15677933394908905,0.1073710098862648
